ExperimentName,Subject,Session,Clock.Information,Display.RefreshRate,Group,PreTaskInstruc.DurationError,PreTaskInstruc.OnsetDelay,PreTaskInstruc.OnsetTime,RandomSeed,Ready1.OnsetTime,Ready1.RTTime,Ready2.OnsetTime,Ready2.RT,SessionDate,SessionTime,SessionTimeUtc,Block,AwareFaces.DurationError[Block],AwareFaces.OnsetDelay[Block],AwareFaces.OnsetTime[Block],BottomFace[Block],bottommask[Block],BottomProbe[Block],EmoPosition[Block],ExperBlockList,ExperBlockList.Cycle,ExperBlockList.Sample,Face[Block],PracTrialList,PracTrialList.Cycle,PracTrialList.Sample,Probe[Block],ProbePosition[Block],Procedure[Block],Running[Block],StimDuration[Block],Target.ACC[Block],Target.CRESP[Block],Target.DurationError[Block],Target.OnsetDelay[Block],Target.OnsetTime[Block],Target.RESP[Block],Target.RT[Block],Target.RTTime[Block],TopFace[Block],topmask[Block],TopProbe[Block],TrialType[Block],Valence[Block],Trial,AwareFaces.DurationError[Trial],AwareFaces.OnsetDelay[Trial],AwareFaces.OnsetTime[Trial],BottomFace[Trial],bottommask[Trial],BottomProbe[Trial],EmoPosition[Trial],Face[Trial],Probe[Trial],ProbePosition[Trial],Procedure[Trial],Running[Trial],StimDuration[Trial],Target.ACC[Trial],Target.CRESP[Trial],Target.DurationError[Trial],Target.OnsetDelay[Trial],Target.OnsetTime[Trial],Target.RESP[Trial],Target.RT[Trial],Target.RTTime[Trial],TopFace[Trial],topmask[Trial],TopProbe[Trial],TrialList,TrialList.Cycle,TrialList.Sample,TrialType[Trial],Valence[Trial]DP_Faces_A_new_2,501,1,"<?xml version=""1.0""?>\n<Clock xmlns:dt=""urn:schemas-microsoft-com:datatypes""><Description dt:dt=""string"">E-Prime Primary Realtime Clock</Description><StartTime><Timestamp dt:dt=""int"">0</Timestamp><DateUtc dt:dt=""string"">2013-05-23T19:51:23Z</DateUtc></StartTime><FrequencyChanges><FrequencyChange><Frequency dt:dt=""r8"">2394030000</Frequency><Timestamp dt:dt=""r8"">1.92503061321221E+16</Timestamp><Current dt:dt=""r8"">0</Current><DateUtc dt:dt=""string"">2013-05-23T19:51:23Z</DateUtc></FrequencyChange></FrequencyChanges></Clock>\n",60.071,1,-999999,7,184717,1194644594,116114,117831,187697,1077,5/23/13,12:51:23,7:51:23 PM,1,0,16,118361,UN.bmp,,,,,,,U,4,1,1,F,top,PracTrialProcAware,PracTrialList,500,0,,-999999,16,118877,2,750,119627,UN.bmp,,F,practice,neuneu,,,,,,,,,,,,,,,,,,,,,,,,,,,,,,DP_Faces_A_new_2,501,1,"<?xml version=""1.0""?>\n<Clock xmlns:dt=""urn:schemas-microsoft-com:datatypes""><Description dt:dt=""string"">E-Prime Primary Realtime Clock</Description><StartTime><Timestamp dt:dt=""int"">0</Timestamp><DateUtc dt:dt=""string"">2013-05-23T19:51:23Z</DateUtc></StartTime><FrequencyChanges><FrequencyChange><Frequency dt:dt=""r8"">2394030000</Frequency><Timestamp dt:dt=""r8"">1.92503061321221E+16</Timestamp><Current dt:dt=""r8"">0</Current><DateUtc dt:dt=""string"">2013-05-23T19:51:23Z</DateUtc></FrequencyChange></FrequencyChanges></Clock>\n",60.071,1,-999999,7,184717,1194644594,116114,117831,187697,1077,5/23/13,12:51:23,7:51:23 PM,2,0,16,121175,XN.bmp,,F,,,,,X,12,1,2,F,bottom,PracTrialProcAware,PracTrialList,500,0,,-999999,16,121691,2,800,122491,XN.bmp,,,practice,neuneu,,,,,,,,,,,,,,,,,,,,,,,,,,,,,,DP_Faces_A_new_2,501,1,"<?xml version=""1.0""?>\n<Clock xmlns:dt=""urn:schemas-microsoft-com:datatypes""><Description dt:dt=""string"">E-Prime Primary Realtime Clock</Description><StartTime><Timestamp dt:dt=""int"">0</Timestamp><DateUtc dt:dt=""string"">2013-05-23T19:51:23Z</DateUtc></StartTime><FrequencyChanges><FrequencyChange><Frequency dt:dt=""r8"">2394030000</Frequency><Timestamp dt:dt=""r8"">1.92503061321221E+16</Timestamp><Current dt:dt=""r8"">0</Current><DateUtc dt:dt=""string"">2013-05-23T19:51:23Z</DateUtc></FrequencyChange></FrequencyChanges></Clock>\n",60.071,1,-999999,7,184717,1194644594,116114,117831,187697,1077,5/23/13,12:51:23,7:51:23 PM,3,0,16,124038,VN.bmp,,E,,,,,V,5,1,3,E,bottom,PracTrialProcAware,PracTrialList,500,0,,-999999,16,124554,1,825,125379,VN.bmp,,,practice,neuneu,,,,,,,,,,,,,,,,,,,,,,,,,,,,,,DP_Faces_A_new_2,501,1,"<?xml version=""1.0""?>\n<Clock xmlns:dt=""urn:schemas-microsoft-com:datatypes""><Description dt:dt=""string"">E-Prime Primary Realtime Clock</Description><StartTime><Timestamp dt:dt=""int"">0</Timestamp><DateUtc dt:dt=""string"">2013-05-23T19:51:23Z</DateUtc></StartTime><FrequencyChanges><FrequencyChange><Frequency dt:dt=""r8"">2394030000</Frequency><Timestamp dt:dt=""r8"">1.92503061321221E+16</Timestamp><Current dt:dt=""r8"">0</Current><DateUtc dt:dt=""string"">2013-05-23T19:51:23Z</DateUtc></FrequencyChange></FrequencyChanges></Clock>\n",60.071,1,-999999,7,184717,1194644594,116114,117831,187697,1077,5/23/13,12:51:23,7:51:23 PM,4,0,49,126951,RN.bmp,,,,,,,R,2,1,4,E,top,PracTrialProcAware,PracTrialList,500,0,,-999999,16,127467,1,640,128107,RN.bmp,,E,practice,neuneu,,,,,,,,,,,,,,,,,,,,,,,,,,,,,,DP_Faces_A_new_2,501,1,"<?xml version=""1.0""?>\n<Clock xmlns:dt=""urn:schemas-microsoft-com:datatypes""><Description dt:dt=""string"">E-Prime Primary Realtime Clock</Description><StartTime><Timestamp dt:dt=""int"">0</Timestamp><DateUtc dt:dt=""string"">2013-05-23T19:51:23Z</DateUtc></StartTime><FrequencyChanges><FrequencyChange><Frequency dt:dt=""r8"">2394030000</Frequency><Timestamp dt:dt=""r8"">1.92503061321221E+16</Timestamp><Current dt:dt=""r8"">0</Current><DateUtc dt:dt=""string"">2013-05-23T19:51:23Z</DateUtc></FrequencyChange></FrequencyChanges></Clock>\n",60.071,1,-999999,7,184717,1194644594,116114,117831,187697,1077,5/23/13,12:51:23,7:51:23 PM,5,0,16,129648,UN.bmp,,,,,,,U,10,1,5,F,top,PracTrialProcAware,PracTrialList,500,0,,-999999,16,130164,2,583,130747,UN.bmp,,F,practice,neuneu,,,,,,,,,,,,,,,,,,,,,,,,,,,,,,DP_Faces_A_new_2,501,1,"<?xml version=""1.0""?>\n<Clock xmlns:dt=""urn:schemas-microsoft-com:datatypes""><Description dt:dt=""string"">E-Prime Primary Realtime Clock</Description><StartTime><Timestamp dt:dt=""int"">0</Timestamp><DateUtc dt:dt=""string"">2013-05-23T19:51:23Z</DateUtc></StartTime><FrequencyChanges><FrequencyChange><Frequency dt:dt=""r8"">2394030000</Frequency><Timestamp dt:dt=""r8"">1.92503061321221E+16</Timestamp><Current dt:dt=""r8"">0</Current><DateUtc dt:dt=""string"">2013-05-23T19:51:23Z</DateUtc></FrequencyChange></FrequencyChanges></Clock>\n",60.071,1,-999999,7,184717,1194644594,116114,117831,187697,1077,5/23/13,12:51:23,7:51:23 PM,6,0,16,132295,QN.bmp,,F,,,,,Q,7,1,6,F,bottom,PracTrialProcAware,PracTrialList,500,0,,-999999,16,132811,2,864,133675,QN.bmp,,,practice,neuneu,,,,,,,,,,,,,,,,,,,,,,,,,,,,,,DP_Faces_A_new_2,501,1,"<?xml version=""1.0""?>\n<Clock xmlns:dt=""urn:schemas-microsoft-com:datatypes""><Description dt:dt=""string"">E-Prime Primary Realtime Clock</Description><StartTime><Timestamp dt:dt=""int"">0</Timestamp><DateUtc dt:dt=""string"">2013-05-23T19:51:23Z</DateUtc></StartTime><FrequencyChanges><FrequencyChange><Frequency dt:dt=""r8"">2394030000</Frequency><Timestamp dt:dt=""r8"">1.92503061321221E+16</Timestamp><Current dt:dt=""r8"">0</Current><DateUtc dt:dt=""string"">2013-05-23T19:51:23Z</DateUtc></FrequencyChange></FrequencyChanges></Clock>\n",60.071,1,-999999,7,184717,1194644594,116114,117831,187697,1077,5/23/13,12:51:23,7:51:23 PM,7,0,16,135208,QN.bmp,,,,,,,Q,1,1,7,E,top,PracTrialProcAware,PracTrialList,500,0,,-999999,16,135724,1,559,136283,QN.bmp,,E,practice,neuneu,,,,,,,,,,,,,,,,,,,,,,,,,,,,,,DP_Faces_A_new_2,501,1,"<?xml version=""1.0""?>\n<Clock xmlns:dt=""urn:schemas-microsoft-com:datatypes""><Description dt:dt=""string"">E-Prime Primary Realtime Clock</Description><StartTime><Timestamp dt:dt=""int"">0</Timestamp><DateUtc dt:dt=""string"">2013-05-23T19:51:23Z</DateUtc></StartTime><FrequencyChanges><FrequencyChange><Frequency dt:dt=""r8"">2394030000</Frequency><Timestamp dt:dt=""r8"">1.92503061321221E+16</Timestamp><Current dt:dt=""r8"">0</Current><DateUtc dt:dt=""string"">2013-05-23T19:51:23Z</DateUtc></FrequencyChange></FrequencyChanges></Clock>\n",60.071,1,-999999,7,184717,1194644594,116114,117831,187697,1077,5/23/13,12:51:23,7:51:23 PM,8,0,33,137839,SN.bmp,,,,,,,S,3,1,8,F,top,PracTrialProcAware,PracTrialList,500,0,,-999999,16,138355,2,504,138859,SN.bmp,,F,practice,neuneu,,,,,,,,,,,,,,,,,,,,,,,,,,,,,,DP_Faces_A_new_2,501,1,"<?xml version=""1.0""?>\n<Clock xmlns:dt=""urn:schemas-microsoft-com:datatypes""><Description dt:dt=""string"">E-Prime Primary Realtime Clock</Description><StartTime><Timestamp dt:dt=""int"">0</Timestamp><DateUtc dt:dt=""string"">2013-05-23T19:51:23Z</DateUtc></StartTime><FrequencyChanges><FrequencyChange><Frequency dt:dt=""r8"">2394030000</Frequency><Timestamp dt:dt=""r8"">1.92503061321221E+16</Timestamp><Current dt:dt=""r8"">0</Current><DateUtc dt:dt=""string"">2013-05-23T19:51:23Z</DateUtc></FrequencyChange></FrequencyChanges></Clock>\n",60.071,1,-999999,7,184717,1194644594,116114,117831,187697,1077,5/23/13,12:51:23,7:51:23 PM,9,0,16,140402,SN.bmp,,,,,,,S,9,1,9,E,top,PracTrialProcAware,PracTrialList,500,0,,-999999,16,140918,1,541,141459,SN.bmp,,E,practice,neuneu,,,,,,,,,,,,,,,,,,,,,,,,,,,,,,DP_Faces_A_new_2,501,1,"<?xml version=""1.0""?>\n<Clock xmlns:dt=""urn:schemas-microsoft-com:datatypes""><Description dt:dt=""string"">E-Prime Primary Realtime Clock</Description><StartTime><Timestamp dt:dt=""int"">0</Timestamp><DateUtc dt:dt=""string"">2013-05-23T19:51:23Z</DateUtc></StartTime><FrequencyChanges><FrequencyChange><Frequency dt:dt=""r8"">2394030000</Frequency><Timestamp dt:dt=""r8"">1.92503061321221E+16</Timestamp><Current dt:dt=""r8"">0</Current><DateUtc dt:dt=""string"">2013-05-23T19:51:23Z</DateUtc></FrequencyChange></FrequencyChanges></Clock>\n",60.071,1,-999999,7,184717,1194644594,116114,117831,187697,1077,5/23/13,12:51:23,7:51:23 PM,10,0,16,142999,RN.bmp,,F,,,,,R,8,1,10,F,bottom,PracTrialProcAware,PracTrialList,500,0,,-999999,16,143515,2,592,144107,RN.bmp,,,practice,neuneu,,,,,,,,,,,,,,,,,,,,,,,,,,,,,,DP_Faces_A_new_2,501,1,"<?xml version=""1.0""?>\n<Clock xmlns:dt=""urn:schemas-microsoft-com:datatypes""><Description dt:dt=""string"">E-Prime Primary Realtime Clock</Description><StartTime><Timestamp dt:dt=""int"">0</Timestamp><DateUtc dt:dt=""string"">2013-05-23T19:51:23Z</DateUtc></StartTime><FrequencyChanges><FrequencyChange><Frequency dt:dt=""r8"">2394030000</Frequency><Timestamp dt:dt=""r8"">1.92503061321221E+16</Timestamp><Current dt:dt=""r8"">0</Current><DateUtc dt:dt=""string"">2013-05-23T19:51:23Z</DateUtc></FrequencyChange></FrequencyChanges></Clock>\n",60.071,1,-999999,7,184717,1194644594,116114,117831,187697,1077,5/23/13,12:51:23,7:51:23 PM,11,0,16,145646,XN.bmp,,E,,,,,X,6,1,11,E,bottom,PracTrialProcAware,PracTrialList,500,0,,-999999,16,146162,1,585,146747,XN.bmp,,,practice,neuneu,,,,,,,,,,,,,,,,,,,,,,,,,,,,,,DP_Faces_A_new_2,501,1,"<?xml version=""1.0""?>\n<Clock xmlns:dt=""urn:schemas-microsoft-com:datatypes""><Description dt:dt=""string"">E-Prime Primary Realtime Clock</Description><StartTime><Timestamp dt:dt=""int"">0</Timestamp><DateUtc dt:dt=""string"">2013-05-23T19:51:23Z</DateUtc></StartTime><FrequencyChanges><FrequencyChange><Frequency dt:dt=""r8"">2394030000</Frequency><Timestamp dt:dt=""r8"">1.92503061321221E+16</Timestamp><Current dt:dt=""r8"">0</Current><DateUtc dt:dt=""string"">2013-05-23T19:51:23Z</DateUtc></FrequencyChange></FrequencyChanges></Clock>\n",60.071,1,-999999,7,184717,1194644594,116114,117831,187697,1077,5/23/13,12:51:23,7:51:23 PM,12,0,16,148293,VN.bmp,,E,,,,,V,11,1,12,E,bottom,PracTrialProcAware,PracTrialList,500,0,,-999999,16,148809,1,610,149419,VN.bmp,,,practice,neuneu,,,,,,,,,,,,,,,,,,,,,,,,,,,,,,DP_Faces_A_new_2,501,1,"<?xml version=""1.0""?>\n<Clock xmlns:dt=""urn:schemas-microsoft-com:datatypes""><Description dt:dt=""string"">E-Prime Primary Realtime Clock</Description><StartTime><Timestamp dt:dt=""int"">0</Timestamp><DateUtc dt:dt=""string"">2013-05-23T19:51:23Z</DateUtc></StartTime><FrequencyChanges><FrequencyChange><Frequency dt:dt=""r8"">2394030000</Frequency><Timestamp dt:dt=""r8"">1.92503061321221E+16</Timestamp><Current dt:dt=""r8"">0</Current><DateUtc dt:dt=""string"">2013-05-23T19:51:23Z</DateUtc></FrequencyChange></FrequencyChanges></Clock>\n",60.071,1,-999999,7,184717,1194644594,116114,117831,187697,1077,5/23/13,12:51:23,7:51:23 PM,13,,,,,,,,1,1,1,,,,,,,BlockProc,ExperBlockList,,,,,,,,,,,,,,,1,0,32,189311,LD.bmp,,F,bottom,L,F,bottom,AwareTrialProc,TrialList,500,0,,-999999,16,189827,2,567,190394,LN.bmp,,,44,1,1,critical,disgustneuDP_Faces_A_new_2,501,1,"<?xml version=""1.0""?>\n<Clock xmlns:dt=""urn:schemas-microsoft-com:datatypes""><Description dt:dt=""string"">E-Prime Primary Realtime Clock</Description><StartTime><Timestamp dt:dt=""int"">0</Timestamp><DateUtc dt:dt=""string"">2013-05-23T19:51:23Z</DateUtc></StartTime><FrequencyChanges><FrequencyChange><Frequency dt:dt=""r8"">2394030000</Frequency><Timestamp dt:dt=""r8"">1.92503061321221E+16</Timestamp><Current dt:dt=""r8"">0</Current><DateUtc dt:dt=""string"">2013-05-23T19:51:23Z</DateUtc></FrequencyChange></FrequencyChanges></Clock>\n",60.071,1,-999999,7,184717,1194644594,116114,117831,187697,1077,5/23/13,12:51:23,7:51:23 PM,13,,,,,,,,1,1,1,,,,,,,BlockProc,ExperBlockList,,,,,,,,,,,,,,,2,0,32,191958,AN.bmp,,,top,A,E,top,AwareTrialProc,TrialList,500,0,,-999999,16,192474,1,480,192954,AH.bmp,,E,49,1,2,critical,happyneuDP_Faces_A_new_2,501,1,"<?xml version=""1.0""?>\n<Clock xmlns:dt=""urn:schemas-microsoft-com:datatypes""><Description dt:dt=""string"">E-Prime Primary Realtime Clock</Description><StartTime><Timestamp dt:dt=""int"">0</Timestamp><DateUtc dt:dt=""string"">2013-05-23T19:51:23Z</DateUtc></StartTime><FrequencyChanges><FrequencyChange><Frequency dt:dt=""r8"">2394030000</Frequency><Timestamp dt:dt=""r8"">1.92503061321221E+16</Timestamp><Current dt:dt=""r8"">0</Current><DateUtc dt:dt=""string"">2013-05-23T19:51:23Z</DateUtc></FrequencyChange></FrequencyChanges></Clock>\n",60.071,1,-999999,7,184717,1194644594,116114,117831,187697,1077,5/23/13,12:51:23,7:51:23 PM,13,,,,,,,,1,1,1,,,,,,,BlockProc,ExperBlockList,,,,,,,,,,,,,,,3,0,16,194489,LD.bmp,,E,bottom,L,E,bottom,AwareTrialProc,TrialList,500,0,,-999999,16,195005,1,613,195618,LN.bmp,,,42,1,3,critical,disgustneuDP_Faces_A_new_2,501,1,"<?xml version=""1.0""?>\n<Clock xmlns:dt=""urn:schemas-microsoft-com:datatypes""><Description dt:dt=""string"">E-Prime Primary Realtime Clock</Description><StartTime><Timestamp dt:dt=""int"">0</Timestamp><DateUtc dt:dt=""string"">2013-05-23T19:51:23Z</DateUtc></StartTime><FrequencyChanges><FrequencyChange><Frequency dt:dt=""r8"">2394030000</Frequency><Timestamp dt:dt=""r8"">1.92503061321221E+16</Timestamp><Current dt:dt=""r8"">0</Current><DateUtc dt:dt=""string"">2013-05-23T19:51:23Z</DateUtc></FrequencyChange></FrequencyChanges></Clock>\n",60.071,1,-999999,7,184717,1194644594,116114,117831,187697,1077,5/23/13,12:51:23,7:51:23 PM,13,,,,,,,,1,1,1,,,,,,,BlockProc,ExperBlockList,,,,,,,,,,,,,,,4,0,33,197169,CN.bmp,,E,,C,E,bottom,AwareTrialProc,TrialList,500,0,,-999999,16,197685,1,573,198258,CN.bmp,,,95,1,4,filler,neuneuDP_Faces_A_new_2,501,1,"<?xml version=""1.0""?>\n<Clock xmlns:dt=""urn:schemas-microsoft-com:datatypes""><Description dt:dt=""string"">E-Prime Primary Realtime Clock</Description><StartTime><Timestamp dt:dt=""int"">0</Timestamp><DateUtc dt:dt=""string"">2013-05-23T19:51:23Z</DateUtc></StartTime><FrequencyChanges><FrequencyChange><Frequency dt:dt=""r8"">2394030000</Frequency><Timestamp dt:dt=""r8"">1.92503061321221E+16</Timestamp><Current dt:dt=""r8"">0</Current><DateUtc dt:dt=""string"">2013-05-23T19:51:23Z</DateUtc></FrequencyChange></FrequencyChanges></Clock>\n",60.071,1,-999999,7,184717,1194644594,116114,117831,187697,1077,5/23/13,12:51:23,7:51:23 PM,13,,,,,,,,1,1,1,,,,,,,BlockProc,ExperBlockList,,,,,,,,,,,,,,,5,0,16,199799,JN.bmp,,,,J,F,top,AwareTrialProc,TrialList,500,0,,-999999,16,200315,2,559,200874,JN.bmp,,F,22,1,5,filler,neuneuDP_Faces_A_new_2,501,1,"<?xml version=""1.0""?>\n<Clock xmlns:dt=""urn:schemas-microsoft-com:datatypes""><Description dt:dt=""string"">E-Prime Primary Realtime Clock</Description><StartTime><Timestamp dt:dt=""int"">0</Timestamp><DateUtc dt:dt=""string"">2013-05-23T19:51:23Z</DateUtc></StartTime><FrequencyChanges><FrequencyChange><Frequency dt:dt=""r8"">2394030000</Frequency><Timestamp dt:dt=""r8"">1.92503061321221E+16</Timestamp><Current dt:dt=""r8"">0</Current><DateUtc dt:dt=""string"">2013-05-23T19:51:23Z</DateUtc></FrequencyChange></FrequencyChanges></Clock>\n",60.071,1,-999999,7,184717,1194644594,116114,117831,187697,1077,5/23/13,12:51:23,7:51:23 PM,13,,,,,,,,1,1,1,,,,,,,BlockProc,ExperBlockList,,,,,,,,,,,,,,,6,0,16,202413,CN.bmp,,,,C,F,top,AwareTrialProc,TrialList,500,0,,-999999,16,202929,2,561,203490,CN.bmp,,F,94,1,6,filler,neuneuDP_Faces_A_new_2,501,1,"<?xml version=""1.0""?>\n<Clock xmlns:dt=""urn:schemas-microsoft-com:datatypes""><Description dt:dt=""string"">E-Prime Primary Realtime Clock</Description><StartTime><Timestamp dt:dt=""int"">0</Timestamp><DateUtc dt:dt=""string"">2013-05-23T19:51:23Z</DateUtc></StartTime><FrequencyChanges><FrequencyChange><Frequency dt:dt=""r8"">2394030000</Frequency><Timestamp dt:dt=""r8"">1.92503061321221E+16</Timestamp><Current dt:dt=""r8"">0</Current><DateUtc dt:dt=""string"">2013-05-23T19:51:23Z</DateUtc></FrequencyChange></FrequencyChanges></Clock>\n",60.071,1,-999999,7,184717,1194644594,116114,117831,187697,1077,5/23/13,12:51:23,7:51:23 PM,13,,,,,,,,1,1,1,,,,,,,BlockProc,ExperBlockList,,,,,,,,,,,,,,,7,0,16,205026,CN.bmp,,,,C,E,top,AwareTrialProc,TrialList,500,0,,-999999,16,205542,1,476,206018,CN.bmp,,E,93,1,7,filler,neuneuDP_Faces_A_new_2,501,1,"<?xml version=""1.0""?>\n<Clock xmlns:dt=""urn:schemas-microsoft-com:datatypes""><Description dt:dt=""string"">E-Prime Primary Realtime Clock</Description><StartTime><Timestamp dt:dt=""int"">0</Timestamp><DateUtc dt:dt=""string"">2013-05-23T19:51:23Z</DateUtc></StartTime><FrequencyChanges><FrequencyChange><Frequency dt:dt=""r8"">2394030000</Frequency><Timestamp dt:dt=""r8"">1.92503061321221E+16</Timestamp><Current dt:dt=""r8"">0</Current><DateUtc dt:dt=""string"">2013-05-23T19:51:23Z</DateUtc></FrequencyChange></FrequencyChanges></Clock>\n",60.071,1,-999999,7,184717,1194644594,116114,117831,187697,1077,5/23/13,12:51:23,7:51:23 PM,13,,,,,,,,1,1,1,,,,,,,BlockProc,ExperBlockList,,,,,,,,,,,,,,,8,0,16,207557,KN.bmp,,,,K,F,top,AwareTrialProc,TrialList,500,0,,-999999,16,208073,2,577,208650,KN.bmp,,F,34,1,8,filler,neuneuDP_Faces_A_new_2,501,1,"<?xml version=""1.0""?>\n<Clock xmlns:dt=""urn:schemas-microsoft-com:datatypes""><Description dt:dt=""string"">E-Prime Primary Realtime Clock</Description><StartTime><Timestamp dt:dt=""int"">0</Timestamp><DateUtc dt:dt=""string"">2013-05-23T19:51:23Z</DateUtc></StartTime><FrequencyChanges><FrequencyChange><Frequency dt:dt=""r8"">2394030000</Frequency><Timestamp dt:dt=""r8"">1.92503061321221E+16</Timestamp><Current dt:dt=""r8"">0</Current><DateUtc dt:dt=""string"">2013-05-23T19:51:23Z</DateUtc></FrequencyChange></FrequencyChanges></Clock>\n",60.071,1,-999999,7,184717,1194644594,116114,117831,187697,1077,5/23/13,12:51:23,7:51:23 PM,13,,,,,,,,1,1,1,,,,,,,BlockProc,ExperBlockList,,,,,,,,,,,,,,,9,0,16,210187,KN.bmp,,F,top,K,F,bottom,AwareTrialProc,TrialList,500,0,,-999999,16,210703,2,691,211394,KD.bmp,,,31,1,9,critical,disgustneuDP_Faces_A_new_2,501,1,"<?xml version=""1.0""?>\n<Clock xmlns:dt=""urn:schemas-microsoft-com:datatypes""><Description dt:dt=""string"">E-Prime Primary Realtime Clock</Description><StartTime><Timestamp dt:dt=""int"">0</Timestamp><DateUtc dt:dt=""string"">2013-05-23T19:51:23Z</DateUtc></StartTime><FrequencyChanges><FrequencyChange><Frequency dt:dt=""r8"">2394030000</Frequency><Timestamp dt:dt=""r8"">1.92503061321221E+16</Timestamp><Current dt:dt=""r8"">0</Current><DateUtc dt:dt=""string"">2013-05-23T19:51:23Z</DateUtc></FrequencyChange></FrequencyChanges></Clock>\n",60.071,1,-999999,7,184717,1194644594,116114,117831,187697,1077,5/23/13,12:51:23,7:51:23 PM,13,,,,,,,,1,1,1,,,,,,,BlockProc,ExperBlockList,,,,,,,,,,,,,,,10,0,16,212934,KN.bmp,,,top,K,E,top,AwareTrialProc,TrialList,500,0,,-999999,16,213450,1,600,214050,KD.bmp,,E,25,1,10,critical,disgustneuDP_Faces_A_new_2,501,1,"<?xml version=""1.0""?>\n<Clock xmlns:dt=""urn:schemas-microsoft-com:datatypes""><Description dt:dt=""string"">E-Prime Primary Realtime Clock</Description><StartTime><Timestamp dt:dt=""int"">0</Timestamp><DateUtc dt:dt=""string"">2013-05-23T19:51:23Z</DateUtc></StartTime><FrequencyChanges><FrequencyChange><Frequency dt:dt=""r8"">2394030000</Frequency><Timestamp dt:dt=""r8"">1.92503061321221E+16</Timestamp><Current dt:dt=""r8"">0</Current><DateUtc dt:dt=""string"">2013-05-23T19:51:23Z</DateUtc></FrequencyChange></FrequencyChanges></Clock>\n",60.071,1,-999999,7,184717,1194644594,116114,117831,187697,1077,5/23/13,12:51:23,7:51:23 PM,13,,,,,,,,1,1,1,,,,,,,BlockProc,ExperBlockList,,,,,,,,,,,,,,,11,0,16,215597,CH.bmp,,,bottom,C,F,top,AwareTrialProc,TrialList,500,0,,-999999,16,216113,2,545,216658,CN.bmp,,F,88,1,11,critical,happyneuDP_Faces_A_new_2,501,1,"<?xml version=""1.0""?>\n<Clock xmlns:dt=""urn:schemas-microsoft-com:datatypes""><Description dt:dt=""string"">E-Prime Primary Realtime Clock</Description><StartTime><Timestamp dt:dt=""int"">0</Timestamp><DateUtc dt:dt=""string"">2013-05-23T19:51:23Z</DateUtc></StartTime><FrequencyChanges><FrequencyChange><Frequency dt:dt=""r8"">2394030000</Frequency><Timestamp dt:dt=""r8"">1.92503061321221E+16</Timestamp><Current dt:dt=""r8"">0</Current><DateUtc dt:dt=""string"">2013-05-23T19:51:23Z</DateUtc></FrequencyChange></FrequencyChanges></Clock>\n",60.071,1,-999999,7,184717,1194644594,116114,117831,187697,1077,5/23/13,12:51:23,7:51:23 PM,13,,,,,,,,1,1,1,,,,,,,BlockProc,ExperBlockList,,,,,,,,,,,,,,,12,0,16,218194,JN.bmp,,,,J,E,top,AwareTrialProc,TrialList,500,0,,-999999,16,218710,1,620,219330,JN.bmp,,E,21,1,12,filler,neuneuDP_Faces_A_new_2,501,1,"<?xml version=""1.0""?>\n<Clock xmlns:dt=""urn:schemas-microsoft-com:datatypes""><Description dt:dt=""string"">E-Prime Primary Realtime Clock</Description><StartTime><Timestamp dt:dt=""int"">0</Timestamp><DateUtc dt:dt=""string"">2013-05-23T19:51:23Z</DateUtc></StartTime><FrequencyChanges><FrequencyChange><Frequency dt:dt=""r8"">2394030000</Frequency><Timestamp dt:dt=""r8"">1.92503061321221E+16</Timestamp><Current dt:dt=""r8"">0</Current><DateUtc dt:dt=""string"">2013-05-23T19:51:23Z</DateUtc></FrequencyChange></FrequencyChanges></Clock>\n",60.071,1,-999999,7,184717,1194644594,116114,117831,187697,1077,5/23/13,12:51:23,7:51:23 PM,13,,,,,,,,1,1,1,,,,,,,BlockProc,ExperBlockList,,,,,,,,,,,,,,,13,0,33,220891,JN.bmp,,,top,J,F,top,AwareTrialProc,TrialList,500,0,,-999999,16,221407,2,499,221906,JD.bmp,,F,15,1,13,critical,disgustneuDP_Faces_A_new_2,501,1,"<?xml version=""1.0""?>\n<Clock xmlns:dt=""urn:schemas-microsoft-com:datatypes""><Description dt:dt=""string"">E-Prime Primary Realtime Clock</Description><StartTime><Timestamp dt:dt=""int"">0</Timestamp><DateUtc dt:dt=""string"">2013-05-23T19:51:23Z</DateUtc></StartTime><FrequencyChanges><FrequencyChange><Frequency dt:dt=""r8"">2394030000</Frequency><Timestamp dt:dt=""r8"">1.92503061321221E+16</Timestamp><Current dt:dt=""r8"">0</Current><DateUtc dt:dt=""string"">2013-05-23T19:51:23Z</DateUtc></FrequencyChange></FrequencyChanges></Clock>\n",60.071,1,-999999,7,184717,1194644594,116114,117831,187697,1077,5/23/13,12:51:23,7:51:23 PM,13,,,,,,,,1,1,1,,,,,,,BlockProc,ExperBlockList,,,,,,,,,,,,,,,14,0,16,223455,JN.bmp,,F,,J,F,bottom,AwareTrialProc,TrialList,500,0,,-999999,16,223971,2,591,224562,JN.bmp,,,24,1,14,filler,neuneuDP_Faces_A_new_2,501,1,"<?xml version=""1.0""?>\n<Clock xmlns:dt=""urn:schemas-microsoft-com:datatypes""><Description dt:dt=""string"">E-Prime Primary Realtime Clock</Description><StartTime><Timestamp dt:dt=""int"">0</Timestamp><DateUtc dt:dt=""string"">2013-05-23T19:51:23Z</DateUtc></StartTime><FrequencyChanges><FrequencyChange><Frequency dt:dt=""r8"">2394030000</Frequency><Timestamp dt:dt=""r8"">1.92503061321221E+16</Timestamp><Current dt:dt=""r8"">0</Current><DateUtc dt:dt=""string"">2013-05-23T19:51:23Z</DateUtc></FrequencyChange></FrequencyChanges></Clock>\n",60.071,1,-999999,7,184717,1194644594,116114,117831,187697,1077,5/23/13,12:51:23,7:51:23 PM,13,,,,,,,,1,1,1,,,,,,,BlockProc,ExperBlockList,,,,,,,,,,,,,,,15,0,49,226135,GN.bmp,,F,top,G,F,bottom,AwareTrialProc,TrialList,500,0,,-999999,16,226651,2,511,227162,GH.bmp,,,79,1,15,critical,happyneuDP_Faces_A_new_2,501,1,"<?xml version=""1.0""?>\n<Clock xmlns:dt=""urn:schemas-microsoft-com:datatypes""><Description dt:dt=""string"">E-Prime Primary Realtime Clock</Description><StartTime><Timestamp dt:dt=""int"">0</Timestamp><DateUtc dt:dt=""string"">2013-05-23T19:51:23Z</DateUtc></StartTime><FrequencyChanges><FrequencyChange><Frequency dt:dt=""r8"">2394030000</Frequency><Timestamp dt:dt=""r8"">1.92503061321221E+16</Timestamp><Current dt:dt=""r8"">0</Current><DateUtc dt:dt=""string"">2013-05-23T19:51:23Z</DateUtc></FrequencyChange></FrequencyChanges></Clock>\n",60.071,1,-999999,7,184717,1194644594,116114,117831,187697,1077,5/23/13,12:51:23,7:51:23 PM,13,,,,,,,,1,1,1,,,,,,,BlockProc,ExperBlockList,,,,,,,,,,,,,,,16,0,33,228715,IN.bmp,,,top,I,F,top,AwareTrialProc,TrialList,500,0,,-999999,16,229231,2,555,229786,ID.bmp,,F,3,1,16,critical,disgustneuDP_Faces_A_new_2,501,1,"<?xml version=""1.0""?>\n<Clock xmlns:dt=""urn:schemas-microsoft-com:datatypes""><Description dt:dt=""string"">E-Prime Primary Realtime Clock</Description><StartTime><Timestamp dt:dt=""int"">0</Timestamp><DateUtc dt:dt=""string"">2013-05-23T19:51:23Z</DateUtc></StartTime><FrequencyChanges><FrequencyChange><Frequency dt:dt=""r8"">2394030000</Frequency><Timestamp dt:dt=""r8"">1.92503061321221E+16</Timestamp><Current dt:dt=""r8"">0</Current><DateUtc dt:dt=""string"">2013-05-23T19:51:23Z</DateUtc></FrequencyChange></FrequencyChanges></Clock>\n",60.071,1,-999999,7,184717,1194644594,116114,117831,187697,1077,5/23/13,12:51:23,7:51:23 PM,13,,,,,,,,1,1,1,,,,,,,BlockProc,ExperBlockList,,,,,,,,,,,,,,,17,0,16,231329,JN.bmp,,E,top,J,E,bottom,AwareTrialProc,TrialList,500,0,,-999999,16,231845,1,597,232442,JD.bmp,,,17,1,17,critical,disgustneuDP_Faces_A_new_2,501,1,"<?xml version=""1.0""?>\n<Clock xmlns:dt=""urn:schemas-microsoft-com:datatypes""><Description dt:dt=""string"">E-Prime Primary Realtime Clock</Description><StartTime><Timestamp dt:dt=""int"">0</Timestamp><DateUtc dt:dt=""string"">2013-05-23T19:51:23Z</DateUtc></StartTime><FrequencyChanges><FrequencyChange><Frequency dt:dt=""r8"">2394030000</Frequency><Timestamp dt:dt=""r8"">1.92503061321221E+16</Timestamp><Current dt:dt=""r8"">0</Current><DateUtc dt:dt=""string"">2013-05-23T19:51:23Z</DateUtc></FrequencyChange></FrequencyChanges></Clock>\n",60.071,1,-999999,7,184717,1194644594,116114,117831,187697,1077,5/23/13,12:51:23,7:51:23 PM,13,,,,,,,,1,1,1,,,,,,,BlockProc,ExperBlockList,,,,,,,,,,,,,,,18,0,16,233976,GH.bmp,,,bottom,G,E,top,AwareTrialProc,TrialList,500,0,,-999999,16,234492,1,494,234986,GN.bmp,,E,74,1,18,critical,happyneuDP_Faces_A_new_2,501,1,"<?xml version=""1.0""?>\n<Clock xmlns:dt=""urn:schemas-microsoft-com:datatypes""><Description dt:dt=""string"">E-Prime Primary Realtime Clock</Description><StartTime><Timestamp dt:dt=""int"">0</Timestamp><DateUtc dt:dt=""string"">2013-05-23T19:51:23Z</DateUtc></StartTime><FrequencyChanges><FrequencyChange><Frequency dt:dt=""r8"">2394030000</Frequency><Timestamp dt:dt=""r8"">1.92503061321221E+16</Timestamp><Current dt:dt=""r8"">0</Current><DateUtc dt:dt=""string"">2013-05-23T19:51:23Z</DateUtc></FrequencyChange></FrequencyChanges></Clock>\n",60.071,1,-999999,7,184717,1194644594,116114,117831,187697,1077,5/23/13,12:51:23,7:51:23 PM,13,,,,,,,,1,1,1,,,,,,,BlockProc,ExperBlockList,,,,,,,,,,,,,,,19,0,16,236523,AH.bmp,,E,bottom,A,E,bottom,AwareTrialProc,TrialList,500,0,,-999999,16,237039,2,571,237610,AN.bmp,,,54,1,19,critical,happyneuDP_Faces_A_new_2,501,1,"<?xml version=""1.0""?>\n<Clock xmlns:dt=""urn:schemas-microsoft-com:datatypes""><Description dt:dt=""string"">E-Prime Primary Realtime Clock</Description><StartTime><Timestamp dt:dt=""int"">0</Timestamp><DateUtc dt:dt=""string"">2013-05-23T19:51:23Z</DateUtc></StartTime><FrequencyChanges><FrequencyChange><Frequency dt:dt=""r8"">2394030000</Frequency><Timestamp dt:dt=""r8"">1.92503061321221E+16</Timestamp><Current dt:dt=""r8"">0</Current><DateUtc dt:dt=""string"">2013-05-23T19:51:23Z</DateUtc></FrequencyChange></FrequencyChanges></Clock>\n",60.071,1,-999999,7,184717,1194644594,116114,117831,187697,1077,5/23/13,12:51:23,7:51:23 PM,13,,,,,,,,1,1,1,,,,,,,BlockProc,ExperBlockList,,,,,,,,,,,,,,,20,0,16,239153,IN.bmp,,F,top,I,F,bottom,AwareTrialProc,TrialList,500,0,,-999999,16,239669,2,677,240346,ID.bmp,,,7,1,20,critical,disgustneuDP_Faces_A_new_2,501,1,"<?xml version=""1.0""?>\n<Clock xmlns:dt=""urn:schemas-microsoft-com:datatypes""><Description dt:dt=""string"">E-Prime Primary Realtime Clock</Description><StartTime><Timestamp dt:dt=""int"">0</Timestamp><DateUtc dt:dt=""string"">2013-05-23T19:51:23Z</DateUtc></StartTime><FrequencyChanges><FrequencyChange><Frequency dt:dt=""r8"">2394030000</Frequency><Timestamp dt:dt=""r8"">1.92503061321221E+16</Timestamp><Current dt:dt=""r8"">0</Current><DateUtc dt:dt=""string"">2013-05-23T19:51:23Z</DateUtc></FrequencyChange></FrequencyChanges></Clock>\n",60.071,1,-999999,7,184717,1194644594,116114,117831,187697,1077,5/23/13,12:51:23,7:51:23 PM,13,,,,,,,,1,1,1,,,,,,,BlockProc,ExperBlockList,,,,,,,,,,,,,,,21,0,16,241883,LN.bmp,,,,L,F,top,AwareTrialProc,TrialList,500,0,,-999999,16,242399,1,546,242945,LN.bmp,,F,46,1,21,filler,neuneuDP_Faces_A_new_2,501,1,"<?xml version=""1.0""?>\n<Clock xmlns:dt=""urn:schemas-microsoft-com:datatypes""><Description dt:dt=""string"">E-Prime Primary Realtime Clock</Description><StartTime><Timestamp dt:dt=""int"">0</Timestamp><DateUtc dt:dt=""string"">2013-05-23T19:51:23Z</DateUtc></StartTime><FrequencyChanges><FrequencyChange><Frequency dt:dt=""r8"">2394030000</Frequency><Timestamp dt:dt=""r8"">1.92503061321221E+16</Timestamp><Current dt:dt=""r8"">0</Current><DateUtc dt:dt=""string"">2013-05-23T19:51:23Z</DateUtc></FrequencyChange></FrequencyChanges></Clock>\n",60.071,1,-999999,7,184717,1194644594,116114,117831,187697,1077,5/23/13,12:51:23,7:51:23 PM,13,,,,,,,,1,1,1,,,,,,,BlockProc,ExperBlockList,,,,,,,,,,,,,,,22,0,16,244480,CH.bmp,,F,bottom,C,F,bottom,AwareTrialProc,TrialList,500,0,,-999999,16,244996,1,925,245921,CN.bmp,,,92,1,22,critical,happyneuDP_Faces_A_new_2,501,1,"<?xml version=""1.0""?>\n<Clock xmlns:dt=""urn:schemas-microsoft-com:datatypes""><Description dt:dt=""string"">E-Prime Primary Realtime Clock</Description><StartTime><Timestamp dt:dt=""int"">0</Timestamp><DateUtc dt:dt=""string"">2013-05-23T19:51:23Z</DateUtc></StartTime><FrequencyChanges><FrequencyChange><Frequency dt:dt=""r8"">2394030000</Frequency><Timestamp dt:dt=""r8"">1.92503061321221E+16</Timestamp><Current dt:dt=""r8"">0</Current><DateUtc dt:dt=""string"">2013-05-23T19:51:23Z</DateUtc></FrequencyChange></FrequencyChanges></Clock>\n",60.071,1,-999999,7,184717,1194644594,116114,117831,187697,1077,5/23/13,12:51:23,7:51:23 PM,13,,,,,,,,1,1,1,,,,,,,BlockProc,ExperBlockList,,,,,,,,,,,,,,,23,0,16,247460,KN.bmp,,,top,K,F,top,AwareTrialProc,TrialList,500,0,,-999999,16,247976,2,689,248665,KD.bmp,,F,27,1,23,critical,disgustneuDP_Faces_A_new_2,501,1,"<?xml version=""1.0""?>\n<Clock xmlns:dt=""urn:schemas-microsoft-com:datatypes""><Description dt:dt=""string"">E-Prime Primary Realtime Clock</Description><StartTime><Timestamp dt:dt=""int"">0</Timestamp><DateUtc dt:dt=""string"">2013-05-23T19:51:23Z</DateUtc></StartTime><FrequencyChanges><FrequencyChange><Frequency dt:dt=""r8"">2394030000</Frequency><Timestamp dt:dt=""r8"">1.92503061321221E+16</Timestamp><Current dt:dt=""r8"">0</Current><DateUtc dt:dt=""string"">2013-05-23T19:51:23Z</DateUtc></FrequencyChange></FrequencyChanges></Clock>\n",60.071,1,-999999,7,184717,1194644594,116114,117831,187697,1077,5/23/13,12:51:23,7:51:23 PM,13,,,,,,,,1,1,1,,,,,,,BlockProc,ExperBlockList,,,,,,,,,,,,,,,24,0,16,250207,AN.bmp,,E,top,A,E,bottom,AwareTrialProc,TrialList,500,0,,-999999,16,250723,1,710,251433,AH.bmp,,,53,1,24,critical,happyneuDP_Faces_A_new_2,501,1,"<?xml version=""1.0""?>\n<Clock xmlns:dt=""urn:schemas-microsoft-com:datatypes""><Description dt:dt=""string"">E-Prime Primary Realtime Clock</Description><StartTime><Timestamp dt:dt=""int"">0</Timestamp><DateUtc dt:dt=""string"">2013-05-23T19:51:23Z</DateUtc></StartTime><FrequencyChanges><FrequencyChange><Frequency dt:dt=""r8"">2394030000</Frequency><Timestamp dt:dt=""r8"">1.92503061321221E+16</Timestamp><Current dt:dt=""r8"">0</Current><DateUtc dt:dt=""string"">2013-05-23T19:51:23Z</DateUtc></FrequencyChange></FrequencyChanges></Clock>\n",60.071,1,-999999,7,184717,1194644594,116114,117831,187697,1077,5/23/13,12:51:23,7:51:23 PM,13,,,,,,,,1,1,1,,,,,,,BlockProc,ExperBlockList,,,,,,,,,,,,,,,25,0,16,252970,EN.bmp,,E,,E,E,bottom,AwareTrialProc,TrialList,500,0,,-999999,16,253486,1,876,254362,EN.bmp,,,71,1,25,filler,neuneuDP_Faces_A_new_2,501,1,"<?xml version=""1.0""?>\n<Clock xmlns:dt=""urn:schemas-microsoft-com:datatypes""><Description dt:dt=""string"">E-Prime Primary Realtime Clock</Description><StartTime><Timestamp dt:dt=""int"">0</Timestamp><DateUtc dt:dt=""string"">2013-05-23T19:51:23Z</DateUtc></StartTime><FrequencyChanges><FrequencyChange><Frequency dt:dt=""r8"">2394030000</Frequency><Timestamp dt:dt=""r8"">1.92503061321221E+16</Timestamp><Current dt:dt=""r8"">0</Current><DateUtc dt:dt=""string"">2013-05-23T19:51:23Z</DateUtc></FrequencyChange></FrequencyChanges></Clock>\n",60.071,1,-999999,7,184717,1194644594,116114,117831,187697,1077,5/23/13,12:51:23,7:51:23 PM,13,,,,,,,,1,1,1,,,,,,,BlockProc,ExperBlockList,,,,,,,,,,,,,,,26,0,16,255900,GN.bmp,,E,top,G,E,bottom,AwareTrialProc,TrialList,500,0,,-999999,16,256416,1,673,257089,GH.bmp,,,77,1,26,critical,happyneuDP_Faces_A_new_2,501,1,"<?xml version=""1.0""?>\n<Clock xmlns:dt=""urn:schemas-microsoft-com:datatypes""><Description dt:dt=""string"">E-Prime Primary Realtime Clock</Description><StartTime><Timestamp dt:dt=""int"">0</Timestamp><DateUtc dt:dt=""string"">2013-05-23T19:51:23Z</DateUtc></StartTime><FrequencyChanges><FrequencyChange><Frequency dt:dt=""r8"">2394030000</Frequency><Timestamp dt:dt=""r8"">1.92503061321221E+16</Timestamp><Current dt:dt=""r8"">0</Current><DateUtc dt:dt=""string"">2013-05-23T19:51:23Z</DateUtc></FrequencyChange></FrequencyChanges></Clock>\n",60.071,1,-999999,7,184717,1194644594,116114,117831,187697,1077,5/23/13,12:51:23,7:51:23 PM,13,,,,,,,,1,1,1,,,,,,,BlockProc,ExperBlockList,,,,,,,,,,,,,,,27,0,16,258630,LN.bmp,,,top,L,F,top,AwareTrialProc,TrialList,500,0,,-999999,16,259146,2,511,259657,LD.bmp,,F,39,1,27,critical,disgustneuDP_Faces_A_new_2,501,1,"<?xml version=""1.0""?>\n<Clock xmlns:dt=""urn:schemas-microsoft-com:datatypes""><Description dt:dt=""string"">E-Prime Primary Realtime Clock</Description><StartTime><Timestamp dt:dt=""int"">0</Timestamp><DateUtc dt:dt=""string"">2013-05-23T19:51:23Z</DateUtc></StartTime><FrequencyChanges><FrequencyChange><Frequency dt:dt=""r8"">2394030000</Frequency><Timestamp dt:dt=""r8"">1.92503061321221E+16</Timestamp><Current dt:dt=""r8"">0</Current><DateUtc dt:dt=""string"">2013-05-23T19:51:23Z</DateUtc></FrequencyChange></FrequencyChanges></Clock>\n",60.071,1,-999999,7,184717,1194644594,116114,117831,187697,1077,5/23/13,12:51:23,7:51:23 PM,13,,,,,,,,1,1,1,,,,,,,BlockProc,ExperBlockList,,,,,,,,,,,,,,,28,0,16,261194,LD.bmp,,,bottom,L,E,top,AwareTrialProc,TrialList,500,0,,-999999,16,261710,1,571,262281,LN.bmp,,E,38,1,28,critical,disgustneuDP_Faces_A_new_2,501,1,"<?xml version=""1.0""?>\n<Clock xmlns:dt=""urn:schemas-microsoft-com:datatypes""><Description dt:dt=""string"">E-Prime Primary Realtime Clock</Description><StartTime><Timestamp dt:dt=""int"">0</Timestamp><DateUtc dt:dt=""string"">2013-05-23T19:51:23Z</DateUtc></StartTime><FrequencyChanges><FrequencyChange><Frequency dt:dt=""r8"">2394030000</Frequency><Timestamp dt:dt=""r8"">1.92503061321221E+16</Timestamp><Current dt:dt=""r8"">0</Current><DateUtc dt:dt=""string"">2013-05-23T19:51:23Z</DateUtc></FrequencyChange></FrequencyChanges></Clock>\n",60.071,1,-999999,7,184717,1194644594,116114,117831,187697,1077,5/23/13,12:51:23,7:51:23 PM,13,,,,,,,,1,1,1,,,,,,,BlockProc,ExperBlockList,,,,,,,,,,,,,,,29,0,16,263824,GN.bmp,,E,,G,E,bottom,AwareTrialProc,TrialList,500,0,,-999999,16,264340,1,661,265001,GN.bmp,,,83,1,29,filler,neuneuDP_Faces_A_new_2,501,1,"<?xml version=""1.0""?>\n<Clock xmlns:dt=""urn:schemas-microsoft-com:datatypes""><Description dt:dt=""string"">E-Prime Primary Realtime Clock</Description><StartTime><Timestamp dt:dt=""int"">0</Timestamp><DateUtc dt:dt=""string"">2013-05-23T19:51:23Z</DateUtc></StartTime><FrequencyChanges><FrequencyChange><Frequency dt:dt=""r8"">2394030000</Frequency><Timestamp dt:dt=""r8"">1.92503061321221E+16</Timestamp><Current dt:dt=""r8"">0</Current><DateUtc dt:dt=""string"">2013-05-23T19:51:23Z</DateUtc></FrequencyChange></FrequencyChanges></Clock>\n",60.071,1,-999999,7,184717,1194644594,116114,117831,187697,1077,5/23/13,12:51:23,7:51:23 PM,13,,,,,,,,1,1,1,,,,,,,BlockProc,ExperBlockList,,,,,,,,,,,,,,,30,0,16,266537,JD.bmp,,E,bottom,J,E,bottom,AwareTrialProc,TrialList,500,0,,-999999,17,267054,1,619,267673,JN.bmp,,,18,1,30,critical,disgustneuDP_Faces_A_new_2,501,1,"<?xml version=""1.0""?>\n<Clock xmlns:dt=""urn:schemas-microsoft-com:datatypes""><Description dt:dt=""string"">E-Prime Primary Realtime Clock</Description><StartTime><Timestamp dt:dt=""int"">0</Timestamp><DateUtc dt:dt=""string"">2013-05-23T19:51:23Z</DateUtc></StartTime><FrequencyChanges><FrequencyChange><Frequency dt:dt=""r8"">2394030000</Frequency><Timestamp dt:dt=""r8"">1.92503061321221E+16</Timestamp><Current dt:dt=""r8"">0</Current><DateUtc dt:dt=""string"">2013-05-23T19:51:23Z</DateUtc></FrequencyChange></FrequencyChanges></Clock>\n",60.071,1,-999999,7,184717,1194644594,116114,117831,187697,1077,5/23/13,12:51:23,7:51:23 PM,13,,,,,,,,1,1,1,,,,,,,BlockProc,ExperBlockList,,,,,,,,,,,,,,,31,0,16,269218,GN.bmp,,,,G,F,top,AwareTrialProc,TrialList,500,0,,-999999,16,269734,2,547,270281,GN.bmp,,F,82,1,31,filler,neuneuDP_Faces_A_new_2,501,1,"<?xml version=""1.0""?>\n<Clock xmlns:dt=""urn:schemas-microsoft-com:datatypes""><Description dt:dt=""string"">E-Prime Primary Realtime Clock</Description><StartTime><Timestamp dt:dt=""int"">0</Timestamp><DateUtc dt:dt=""string"">2013-05-23T19:51:23Z</DateUtc></StartTime><FrequencyChanges><FrequencyChange><Frequency dt:dt=""r8"">2394030000</Frequency><Timestamp dt:dt=""r8"">1.92503061321221E+16</Timestamp><Current dt:dt=""r8"">0</Current><DateUtc dt:dt=""string"">2013-05-23T19:51:23Z</DateUtc></FrequencyChange></FrequencyChanges></Clock>\n",60.071,1,-999999,7,184717,1194644594,116114,117831,187697,1077,5/23/13,12:51:23,7:51:23 PM,13,,,,,,,,1,1,1,,,,,,,BlockProc,ExperBlockList,,,,,,,,,,,,,,,32,0,16,271815,LN.bmp,,F,,L,F,bottom,AwareTrialProc,TrialList,500,0,,-999999,16,272331,2,622,272953,LN.bmp,,,48,1,32,filler,neuneuDP_Faces_A_new_2,501,1,"<?xml version=""1.0""?>\n<Clock xmlns:dt=""urn:schemas-microsoft-com:datatypes""><Description dt:dt=""string"">E-Prime Primary Realtime Clock</Description><StartTime><Timestamp dt:dt=""int"">0</Timestamp><DateUtc dt:dt=""string"">2013-05-23T19:51:23Z</DateUtc></StartTime><FrequencyChanges><FrequencyChange><Frequency dt:dt=""r8"">2394030000</Frequency><Timestamp dt:dt=""r8"">1.92503061321221E+16</Timestamp><Current dt:dt=""r8"">0</Current><DateUtc dt:dt=""string"">2013-05-23T19:51:23Z</DateUtc></FrequencyChange></FrequencyChanges></Clock>\n",60.071,1,-999999,7,184717,1194644594,116114,117831,187697,1077,5/23/13,12:51:23,7:51:23 PM,13,,,,,,,,1,1,1,,,,,,,BlockProc,ExperBlockList,,,,,,,,,,,,,,,33,0,16,274495,GH.bmp,,F,bottom,G,F,bottom,AwareTrialProc,TrialList,500,0,,-999999,16,275011,1,598,275609,GN.bmp,,,80,1,33,critical,happyneuDP_Faces_A_new_2,501,1,"<?xml version=""1.0""?>\n<Clock xmlns:dt=""urn:schemas-microsoft-com:datatypes""><Description dt:dt=""string"">E-Prime Primary Realtime Clock</Description><StartTime><Timestamp dt:dt=""int"">0</Timestamp><DateUtc dt:dt=""string"">2013-05-23T19:51:23Z</DateUtc></StartTime><FrequencyChanges><FrequencyChange><Frequency dt:dt=""r8"">2394030000</Frequency><Timestamp dt:dt=""r8"">1.92503061321221E+16</Timestamp><Current dt:dt=""r8"">0</Current><DateUtc dt:dt=""string"">2013-05-23T19:51:23Z</DateUtc></FrequencyChange></FrequencyChanges></Clock>\n",60.071,1,-999999,7,184717,1194644594,116114,117831,187697,1077,5/23/13,12:51:23,7:51:23 PM,13,,,,,,,,1,1,1,,,,,,,BlockProc,ExperBlockList,,,,,,,,,,,,,,,34,0,16,277142,LN.bmp,,F,top,L,F,bottom,AwareTrialProc,TrialList,500,0,,-999999,16,277658,2,815,278473,LD.bmp,,,43,1,34,critical,disgustneuDP_Faces_A_new_2,501,1,"<?xml version=""1.0""?>\n<Clock xmlns:dt=""urn:schemas-microsoft-com:datatypes""><Description dt:dt=""string"">E-Prime Primary Realtime Clock</Description><StartTime><Timestamp dt:dt=""int"">0</Timestamp><DateUtc dt:dt=""string"">2013-05-23T19:51:23Z</DateUtc></StartTime><FrequencyChanges><FrequencyChange><Frequency dt:dt=""r8"">2394030000</Frequency><Timestamp dt:dt=""r8"">1.92503061321221E+16</Timestamp><Current dt:dt=""r8"">0</Current><DateUtc dt:dt=""string"">2013-05-23T19:51:23Z</DateUtc></FrequencyChange></FrequencyChanges></Clock>\n",60.071,1,-999999,7,184717,1194644594,116114,117831,187697,1077,5/23/13,12:51:23,7:51:23 PM,13,,,,,,,,1,1,1,,,,,,,BlockProc,ExperBlockList,,,,,,,,,,,,,,,35,0,16,280022,CH.bmp,,,bottom,C,E,top,AwareTrialProc,TrialList,500,0,,-999999,16,280538,1,791,281329,CN.bmp,,E,86,1,35,critical,happyneuDP_Faces_A_new_2,501,1,"<?xml version=""1.0""?>\n<Clock xmlns:dt=""urn:schemas-microsoft-com:datatypes""><Description dt:dt=""string"">E-Prime Primary Realtime Clock</Description><StartTime><Timestamp dt:dt=""int"">0</Timestamp><DateUtc dt:dt=""string"">2013-05-23T19:51:23Z</DateUtc></StartTime><FrequencyChanges><FrequencyChange><Frequency dt:dt=""r8"">2394030000</Frequency><Timestamp dt:dt=""r8"">1.92503061321221E+16</Timestamp><Current dt:dt=""r8"">0</Current><DateUtc dt:dt=""string"">2013-05-23T19:51:23Z</DateUtc></FrequencyChange></FrequencyChanges></Clock>\n",60.071,1,-999999,7,184717,1194644594,116114,117831,187697,1077,5/23/13,12:51:23,7:51:23 PM,13,,,,,,,,1,1,1,,,,,,,BlockProc,ExperBlockList,,,,,,,,,,,,,,,36,0,16,282868,GH.bmp,,,bottom,G,F,top,AwareTrialProc,TrialList,500,0,,-999999,16,283384,2,857,284241,GN.bmp,,F,76,1,36,critical,happyneuDP_Faces_A_new_2,501,1,"<?xml version=""1.0""?>\n<Clock xmlns:dt=""urn:schemas-microsoft-com:datatypes""><Description dt:dt=""string"">E-Prime Primary Realtime Clock</Description><StartTime><Timestamp dt:dt=""int"">0</Timestamp><DateUtc dt:dt=""string"">2013-05-23T19:51:23Z</DateUtc></StartTime><FrequencyChanges><FrequencyChange><Frequency dt:dt=""r8"">2394030000</Frequency><Timestamp dt:dt=""r8"">1.92503061321221E+16</Timestamp><Current dt:dt=""r8"">0</Current><DateUtc dt:dt=""string"">2013-05-23T19:51:23Z</DateUtc></FrequencyChange></FrequencyChanges></Clock>\n",60.071,1,-999999,7,184717,1194644594,116114,117831,187697,1077,5/23/13,12:51:23,7:51:23 PM,13,,,,,,,,1,1,1,,,,,,,BlockProc,ExperBlockList,,,,,,,,,,,,,,,37,0,17,285782,JD.bmp,,F,bottom,J,F,bottom,AwareTrialProc,TrialList,500,0,,-999999,16,286298,2,838,287136,JN.bmp,,,20,1,37,critical,disgustneuDP_Faces_A_new_2,501,1,"<?xml version=""1.0""?>\n<Clock xmlns:dt=""urn:schemas-microsoft-com:datatypes""><Description dt:dt=""string"">E-Prime Primary Realtime Clock</Description><StartTime><Timestamp dt:dt=""int"">0</Timestamp><DateUtc dt:dt=""string"">2013-05-23T19:51:23Z</DateUtc></StartTime><FrequencyChanges><FrequencyChange><Frequency dt:dt=""r8"">2394030000</Frequency><Timestamp dt:dt=""r8"">1.92503061321221E+16</Timestamp><Current dt:dt=""r8"">0</Current><DateUtc dt:dt=""string"">2013-05-23T19:51:23Z</DateUtc></FrequencyChange></FrequencyChanges></Clock>\n",60.071,1,-999999,7,184717,1194644594,116114,117831,187697,1077,5/23/13,12:51:23,7:51:23 PM,13,,,,,,,,1,1,1,,,,,,,BlockProc,ExperBlockList,,,,,,,,,,,,,,,38,0,16,288678,AN.bmp,,,,A,E,top,AwareTrialProc,TrialList,500,0,,-999999,16,289194,1,742,289936,AN.bmp,,E,57,1,38,filler,neuneuDP_Faces_A_new_2,501,1,"<?xml version=""1.0""?>\n<Clock xmlns:dt=""urn:schemas-microsoft-com:datatypes""><Description dt:dt=""string"">E-Prime Primary Realtime Clock</Description><StartTime><Timestamp dt:dt=""int"">0</Timestamp><DateUtc dt:dt=""string"">2013-05-23T19:51:23Z</DateUtc></StartTime><FrequencyChanges><FrequencyChange><Frequency dt:dt=""r8"">2394030000</Frequency><Timestamp dt:dt=""r8"">1.92503061321221E+16</Timestamp><Current dt:dt=""r8"">0</Current><DateUtc dt:dt=""string"">2013-05-23T19:51:23Z</DateUtc></FrequencyChange></FrequencyChanges></Clock>\n",60.071,1,-999999,7,184717,1194644594,116114,117831,187697,1077,5/23/13,12:51:23,7:51:23 PM,13,,,,,,,,1,1,1,,,,,,,BlockProc,ExperBlockList,,,,,,,,,,,,,,,39,0,16,291475,KN.bmp,,,,K,E,top,AwareTrialProc,TrialList,500,0,,-999999,16,291991,1,546,292537,KN.bmp,,E,33,1,39,filler,neuneuDP_Faces_A_new_2,501,1,"<?xml version=""1.0""?>\n<Clock xmlns:dt=""urn:schemas-microsoft-com:datatypes""><Description dt:dt=""string"">E-Prime Primary Realtime Clock</Description><StartTime><Timestamp dt:dt=""int"">0</Timestamp><DateUtc dt:dt=""string"">2013-05-23T19:51:23Z</DateUtc></StartTime><FrequencyChanges><FrequencyChange><Frequency dt:dt=""r8"">2394030000</Frequency><Timestamp dt:dt=""r8"">1.92503061321221E+16</Timestamp><Current dt:dt=""r8"">0</Current><DateUtc dt:dt=""string"">2013-05-23T19:51:23Z</DateUtc></FrequencyChange></FrequencyChanges></Clock>\n",60.071,1,-999999,7,184717,1194644594,116114,117831,187697,1077,5/23/13,12:51:23,7:51:23 PM,13,,,,,,,,1,1,1,,,,,,,BlockProc,ExperBlockList,,,,,,,,,,,,,,,40,0,16,294072,ID.bmp,,,bottom,I,E,top,AwareTrialProc,TrialList,500,0,,-999999,16,294588,1,589,295177,IN.bmp,,E,2,1,40,critical,disgustneuDP_Faces_A_new_2,501,1,"<?xml version=""1.0""?>\n<Clock xmlns:dt=""urn:schemas-microsoft-com:datatypes""><Description dt:dt=""string"">E-Prime Primary Realtime Clock</Description><StartTime><Timestamp dt:dt=""int"">0</Timestamp><DateUtc dt:dt=""string"">2013-05-23T19:51:23Z</DateUtc></StartTime><FrequencyChanges><FrequencyChange><Frequency dt:dt=""r8"">2394030000</Frequency><Timestamp dt:dt=""r8"">1.92503061321221E+16</Timestamp><Current dt:dt=""r8"">0</Current><DateUtc dt:dt=""string"">2013-05-23T19:51:23Z</DateUtc></FrequencyChange></FrequencyChanges></Clock>\n",60.071,1,-999999,7,184717,1194644594,116114,117831,187697,1077,5/23/13,12:51:23,7:51:23 PM,13,,,,,,,,1,1,1,,,,,,,BlockProc,ExperBlockList,,,,,,,,,,,,,,,41,0,16,296719,LN.bmp,,E,,L,E,bottom,AwareTrialProc,TrialList,500,0,,-999999,16,297235,1,725,297960,LN.bmp,,,47,1,41,filler,neuneuDP_Faces_A_new_2,501,1,"<?xml version=""1.0""?>\n<Clock xmlns:dt=""urn:schemas-microsoft-com:datatypes""><Description dt:dt=""string"">E-Prime Primary Realtime Clock</Description><StartTime><Timestamp dt:dt=""int"">0</Timestamp><DateUtc dt:dt=""string"">2013-05-23T19:51:23Z</DateUtc></StartTime><FrequencyChanges><FrequencyChange><Frequency dt:dt=""r8"">2394030000</Frequency><Timestamp dt:dt=""r8"">1.92503061321221E+16</Timestamp><Current dt:dt=""r8"">0</Current><DateUtc dt:dt=""string"">2013-05-23T19:51:23Z</DateUtc></FrequencyChange></FrequencyChanges></Clock>\n",60.071,1,-999999,7,184717,1194644594,116114,117831,187697,1077,5/23/13,12:51:23,7:51:23 PM,13,,,,,,,,1,1,1,,,,,,,BlockProc,ExperBlockList,,,,,,,,,,,,,,,42,0,16,299499,AH.bmp,,F,bottom,A,F,bottom,AwareTrialProc,TrialList,500,0,,-999999,16,300015,2,690,300705,AN.bmp,,,56,1,42,critical,happyneuDP_Faces_A_new_2,501,1,"<?xml version=""1.0""?>\n<Clock xmlns:dt=""urn:schemas-microsoft-com:datatypes""><Description dt:dt=""string"">E-Prime Primary Realtime Clock</Description><StartTime><Timestamp dt:dt=""int"">0</Timestamp><DateUtc dt:dt=""string"">2013-05-23T19:51:23Z</DateUtc></StartTime><FrequencyChanges><FrequencyChange><Frequency dt:dt=""r8"">2394030000</Frequency><Timestamp dt:dt=""r8"">1.92503061321221E+16</Timestamp><Current dt:dt=""r8"">0</Current><DateUtc dt:dt=""string"">2013-05-23T19:51:23Z</DateUtc></FrequencyChange></FrequencyChanges></Clock>\n",60.071,1,-999999,7,184717,1194644594,116114,117831,187697,1077,5/23/13,12:51:23,7:51:23 PM,13,,,,,,,,1,1,1,,,,,,,BlockProc,ExperBlockList,,,,,,,,,,,,,,,43,0,17,302246,JN.bmp,,F,top,J,F,bottom,AwareTrialProc,TrialList,500,0,,-999999,16,302762,2,606,303368,JD.bmp,,,19,1,43,critical,disgustneuDP_Faces_A_new_2,501,1,"<?xml version=""1.0""?>\n<Clock xmlns:dt=""urn:schemas-microsoft-com:datatypes""><Description dt:dt=""string"">E-Prime Primary Realtime Clock</Description><StartTime><Timestamp dt:dt=""int"">0</Timestamp><DateUtc dt:dt=""string"">2013-05-23T19:51:23Z</DateUtc></StartTime><FrequencyChanges><FrequencyChange><Frequency dt:dt=""r8"">2394030000</Frequency><Timestamp dt:dt=""r8"">1.92503061321221E+16</Timestamp><Current dt:dt=""r8"">0</Current><DateUtc dt:dt=""string"">2013-05-23T19:51:23Z</DateUtc></FrequencyChange></FrequencyChanges></Clock>\n",60.071,1,-999999,7,184717,1194644594,116114,117831,187697,1077,5/23/13,12:51:23,7:51:23 PM,13,,,,,,,,1,1,1,,,,,,,BlockProc,ExperBlockList,,,,,,,,,,,,,,,44,0,16,304909,KN.bmp,,F,,K,F,bottom,AwareTrialProc,TrialList,500,0,,-999999,16,305425,2,591,306016,KN.bmp,,,36,1,44,filler,neuneuDP_Faces_A_new_2,501,1,"<?xml version=""1.0""?>\n<Clock xmlns:dt=""urn:schemas-microsoft-com:datatypes""><Description dt:dt=""string"">E-Prime Primary Realtime Clock</Description><StartTime><Timestamp dt:dt=""int"">0</Timestamp><DateUtc dt:dt=""string"">2013-05-23T19:51:23Z</DateUtc></StartTime><FrequencyChanges><FrequencyChange><Frequency dt:dt=""r8"">2394030000</Frequency><Timestamp dt:dt=""r8"">1.92503061321221E+16</Timestamp><Current dt:dt=""r8"">0</Current><DateUtc dt:dt=""string"">2013-05-23T19:51:23Z</DateUtc></FrequencyChange></FrequencyChanges></Clock>\n",60.071,1,-999999,7,184717,1194644594,116114,117831,187697,1077,5/23/13,12:51:23,7:51:23 PM,13,,,,,,,,1,1,1,,,,,,,BlockProc,ExperBlockList,,,,,,,,,,,,,,,45,0,16,307556,AN.bmp,,F,,A,F,bottom,AwareTrialProc,TrialList,500,0,,-999999,16,308072,2,608,308680,AN.bmp,,,60,1,45,filler,neuneuDP_Faces_A_new_2,501,1,"<?xml version=""1.0""?>\n<Clock xmlns:dt=""urn:schemas-microsoft-com:datatypes""><Description dt:dt=""string"">E-Prime Primary Realtime Clock</Description><StartTime><Timestamp dt:dt=""int"">0</Timestamp><DateUtc dt:dt=""string"">2013-05-23T19:51:23Z</DateUtc></StartTime><FrequencyChanges><FrequencyChange><Frequency dt:dt=""r8"">2394030000</Frequency><Timestamp dt:dt=""r8"">1.92503061321221E+16</Timestamp><Current dt:dt=""r8"">0</Current><DateUtc dt:dt=""string"">2013-05-23T19:51:23Z</DateUtc></FrequencyChange></FrequencyChanges></Clock>\n",60.071,1,-999999,7,184717,1194644594,116114,117831,187697,1077,5/23/13,12:51:23,7:51:23 PM,13,,,,,,,,1,1,1,,,,,,,BlockProc,ExperBlockList,,,,,,,,,,,,,,,46,0,17,310220,AN.bmp,,F,top,A,F,bottom,AwareTrialProc,TrialList,500,0,,-999999,16,310736,2,552,311288,AH.bmp,,,55,1,46,critical,happyneuDP_Faces_A_new_2,501,1,"<?xml version=""1.0""?>\n<Clock xmlns:dt=""urn:schemas-microsoft-com:datatypes""><Description dt:dt=""string"">E-Prime Primary Realtime Clock</Description><StartTime><Timestamp dt:dt=""int"">0</Timestamp><DateUtc dt:dt=""string"">2013-05-23T19:51:23Z</DateUtc></StartTime><FrequencyChanges><FrequencyChange><Frequency dt:dt=""r8"">2394030000</Frequency><Timestamp dt:dt=""r8"">1.92503061321221E+16</Timestamp><Current dt:dt=""r8"">0</Current><DateUtc dt:dt=""string"">2013-05-23T19:51:23Z</DateUtc></FrequencyChange></FrequencyChanges></Clock>\n",60.071,1,-999999,7,184717,1194644594,116114,117831,187697,1077,5/23/13,12:51:23,7:51:23 PM,13,,,,,,,,1,1,1,,,,,,,BlockProc,ExperBlockList,,,,,,,,,,,,,,,47,0,16,312833,ID.bmp,,F,bottom,I,F,bottom,AwareTrialProc,TrialList,500,0,,-999999,16,313349,2,635,313984,IN.bmp,,,8,1,47,critical,disgustneuDP_Faces_A_new_2,501,1,"<?xml version=""1.0""?>\n<Clock xmlns:dt=""urn:schemas-microsoft-com:datatypes""><Description dt:dt=""string"">E-Prime Primary Realtime Clock</Description><StartTime><Timestamp dt:dt=""int"">0</Timestamp><DateUtc dt:dt=""string"">2013-05-23T19:51:23Z</DateUtc></StartTime><FrequencyChanges><FrequencyChange><Frequency dt:dt=""r8"">2394030000</Frequency><Timestamp dt:dt=""r8"">1.92503061321221E+16</Timestamp><Current dt:dt=""r8"">0</Current><DateUtc dt:dt=""string"">2013-05-23T19:51:23Z</DateUtc></FrequencyChange></FrequencyChanges></Clock>\n",60.071,1,-999999,7,184717,1194644594,116114,117831,187697,1077,5/23/13,12:51:23,7:51:23 PM,13,,,,,,,,1,1,1,,,,,,,BlockProc,ExperBlockList,,,,,,,,,,,,,,,48,0,16,315530,CN.bmp,,E,top,C,E,bottom,AwareTrialProc,TrialList,500,0,,-999999,16,316046,1,570,316616,CH.bmp,,,89,1,48,critical,happyneuDP_Faces_A_new_2,501,1,"<?xml version=""1.0""?>\n<Clock xmlns:dt=""urn:schemas-microsoft-com:datatypes""><Description dt:dt=""string"">E-Prime Primary Realtime Clock</Description><StartTime><Timestamp dt:dt=""int"">0</Timestamp><DateUtc dt:dt=""string"">2013-05-23T19:51:23Z</DateUtc></StartTime><FrequencyChanges><FrequencyChange><Frequency dt:dt=""r8"">2394030000</Frequency><Timestamp dt:dt=""r8"">1.92503061321221E+16</Timestamp><Current dt:dt=""r8"">0</Current><DateUtc dt:dt=""string"">2013-05-23T19:51:23Z</DateUtc></FrequencyChange></FrequencyChanges></Clock>\n",60.071,1,-999999,7,184717,1194644594,116114,117831,187697,1077,5/23/13,12:51:23,7:51:23 PM,13,,,,,,,,1,1,1,,,,,,,BlockProc,ExperBlockList,,,,,,,,,,,,,,,49,0,16,318160,GH.bmp,,E,bottom,G,E,bottom,AwareTrialProc,TrialList,500,0,,-999999,16,318676,1,604,319280,GN.bmp,,,78,1,49,critical,happyneuDP_Faces_A_new_2,501,1,"<?xml version=""1.0""?>\n<Clock xmlns:dt=""urn:schemas-microsoft-com:datatypes""><Description dt:dt=""string"">E-Prime Primary Realtime Clock</Description><StartTime><Timestamp dt:dt=""int"">0</Timestamp><DateUtc dt:dt=""string"">2013-05-23T19:51:23Z</DateUtc></StartTime><FrequencyChanges><FrequencyChange><Frequency dt:dt=""r8"">2394030000</Frequency><Timestamp dt:dt=""r8"">1.92503061321221E+16</Timestamp><Current dt:dt=""r8"">0</Current><DateUtc dt:dt=""string"">2013-05-23T19:51:23Z</DateUtc></FrequencyChange></FrequencyChanges></Clock>\n",60.071,1,-999999,7,184717,1194644594,116114,117831,187697,1077,5/23/13,12:51:23,7:51:23 PM,13,,,,,,,,1,1,1,,,,,,,BlockProc,ExperBlockList,,,,,,,,,,,,,,,50,0,16,320824,IN.bmp,,,top,I,E,top,AwareTrialProc,TrialList,500,0,,-999999,16,321340,1,628,321968,ID.bmp,,E,1,1,50,critical,disgustneuDP_Faces_A_new_2,501,1,"<?xml version=""1.0""?>\n<Clock xmlns:dt=""urn:schemas-microsoft-com:datatypes""><Description dt:dt=""string"">E-Prime Primary Realtime Clock</Description><StartTime><Timestamp dt:dt=""int"">0</Timestamp><DateUtc dt:dt=""string"">2013-05-23T19:51:23Z</DateUtc></StartTime><FrequencyChanges><FrequencyChange><Frequency dt:dt=""r8"">2394030000</Frequency><Timestamp dt:dt=""r8"">1.92503061321221E+16</Timestamp><Current dt:dt=""r8"">0</Current><DateUtc dt:dt=""string"">2013-05-23T19:51:23Z</DateUtc></FrequencyChange></FrequencyChanges></Clock>\n",60.071,1,-999999,7,184717,1194644594,116114,117831,187697,1077,5/23/13,12:51:23,7:51:23 PM,13,,,,,,,,1,1,1,,,,,,,BlockProc,ExperBlockList,,,,,,,,,,,,,,,51,0,16,323504,IN.bmp,,,,I,E,top,AwareTrialProc,TrialList,500,0,,-999999,16,324020,1,516,324536,IN.bmp,,E,9,1,51,filler,neuneuDP_Faces_A_new_2,501,1,"<?xml version=""1.0""?>\n<Clock xmlns:dt=""urn:schemas-microsoft-com:datatypes""><Description dt:dt=""string"">E-Prime Primary Realtime Clock</Description><StartTime><Timestamp dt:dt=""int"">0</Timestamp><DateUtc dt:dt=""string"">2013-05-23T19:51:23Z</DateUtc></StartTime><FrequencyChanges><FrequencyChange><Frequency dt:dt=""r8"">2394030000</Frequency><Timestamp dt:dt=""r8"">1.92503061321221E+16</Timestamp><Current dt:dt=""r8"">0</Current><DateUtc dt:dt=""string"">2013-05-23T19:51:23Z</DateUtc></FrequencyChange></FrequencyChanges></Clock>\n",60.071,1,-999999,7,184717,1194644594,116114,117831,187697,1077,5/23/13,12:51:23,7:51:23 PM,13,,,,,,,,1,1,1,,,,,,,BlockProc,ExperBlockList,,,,,,,,,,,,,,,52,0,16,326084,IN.bmp,,F,,I,F,bottom,AwareTrialProc,TrialList,500,0,,-999999,16,326600,2,576,327176,IN.bmp,,,12,1,52,filler,neuneuDP_Faces_A_new_2,501,1,"<?xml version=""1.0""?>\n<Clock xmlns:dt=""urn:schemas-microsoft-com:datatypes""><Description dt:dt=""string"">E-Prime Primary Realtime Clock</Description><StartTime><Timestamp dt:dt=""int"">0</Timestamp><DateUtc dt:dt=""string"">2013-05-23T19:51:23Z</DateUtc></StartTime><FrequencyChanges><FrequencyChange><Frequency dt:dt=""r8"">2394030000</Frequency><Timestamp dt:dt=""r8"">1.92503061321221E+16</Timestamp><Current dt:dt=""r8"">0</Current><DateUtc dt:dt=""string"">2013-05-23T19:51:23Z</DateUtc></FrequencyChange></FrequencyChanges></Clock>\n",60.071,1,-999999,7,184717,1194644594,116114,117831,187697,1077,5/23/13,12:51:23,7:51:23 PM,13,,,,,,,,1,1,1,,,,,,,BlockProc,ExperBlockList,,,,,,,,,,,,,,,53,0,16,328714,LN.bmp,,,,L,E,top,AwareTrialProc,TrialList,500,0,,-999999,17,329231,1,545,329776,LN.bmp,,E,45,1,53,filler,neuneuDP_Faces_A_new_2,501,1,"<?xml version=""1.0""?>\n<Clock xmlns:dt=""urn:schemas-microsoft-com:datatypes""><Description dt:dt=""string"">E-Prime Primary Realtime Clock</Description><StartTime><Timestamp dt:dt=""int"">0</Timestamp><DateUtc dt:dt=""string"">2013-05-23T19:51:23Z</DateUtc></StartTime><FrequencyChanges><FrequencyChange><Frequency dt:dt=""r8"">2394030000</Frequency><Timestamp dt:dt=""r8"">1.92503061321221E+16</Timestamp><Current dt:dt=""r8"">0</Current><DateUtc dt:dt=""string"">2013-05-23T19:51:23Z</DateUtc></FrequencyChange></FrequencyChanges></Clock>\n",60.071,1,-999999,7,184717,1194644594,116114,117831,187697,1077,5/23/13,12:51:23,7:51:23 PM,13,,,,,,,,1,1,1,,,,,,,BlockProc,ExperBlockList,,,,,,,,,,,,,,,54,0,16,331311,KD.bmp,,F,bottom,K,F,bottom,AwareTrialProc,TrialList,500,0,,-999999,16,331827,2,557,332384,KN.bmp,,,32,1,54,critical,disgustneuDP_Faces_A_new_2,501,1,"<?xml version=""1.0""?>\n<Clock xmlns:dt=""urn:schemas-microsoft-com:datatypes""><Description dt:dt=""string"">E-Prime Primary Realtime Clock</Description><StartTime><Timestamp dt:dt=""int"">0</Timestamp><DateUtc dt:dt=""string"">2013-05-23T19:51:23Z</DateUtc></StartTime><FrequencyChanges><FrequencyChange><Frequency dt:dt=""r8"">2394030000</Frequency><Timestamp dt:dt=""r8"">1.92503061321221E+16</Timestamp><Current dt:dt=""r8"">0</Current><DateUtc dt:dt=""string"">2013-05-23T19:51:23Z</DateUtc></FrequencyChange></FrequencyChanges></Clock>\n",60.071,1,-999999,7,184717,1194644594,116114,117831,187697,1077,5/23/13,12:51:23,7:51:23 PM,13,,,,,,,,1,1,1,,,,,,,BlockProc,ExperBlockList,,,,,,,,,,,,,,,55,0,16,333925,EH.bmp,,,bottom,E,F,top,AwareTrialProc,TrialList,500,0,,-999999,16,334441,2,519,334960,EN.bmp,,F,64,1,55,critical,happyneuDP_Faces_A_new_2,501,1,"<?xml version=""1.0""?>\n<Clock xmlns:dt=""urn:schemas-microsoft-com:datatypes""><Description dt:dt=""string"">E-Prime Primary Realtime Clock</Description><StartTime><Timestamp dt:dt=""int"">0</Timestamp><DateUtc dt:dt=""string"">2013-05-23T19:51:23Z</DateUtc></StartTime><FrequencyChanges><FrequencyChange><Frequency dt:dt=""r8"">2394030000</Frequency><Timestamp dt:dt=""r8"">1.92503061321221E+16</Timestamp><Current dt:dt=""r8"">0</Current><DateUtc dt:dt=""string"">2013-05-23T19:51:23Z</DateUtc></FrequencyChange></FrequencyChanges></Clock>\n",60.071,1,-999999,7,184717,1194644594,116114,117831,187697,1077,5/23/13,12:51:23,7:51:23 PM,13,,,,,,,,1,1,1,,,,,,,BlockProc,ExperBlockList,,,,,,,,,,,,,,,56,0,16,336505,EH.bmp,,E,bottom,E,E,bottom,AwareTrialProc,TrialList,500,0,,-999999,16,337021,1,627,337648,EN.bmp,,,66,1,56,critical,happyneuDP_Faces_A_new_2,501,1,"<?xml version=""1.0""?>\n<Clock xmlns:dt=""urn:schemas-microsoft-com:datatypes""><Description dt:dt=""string"">E-Prime Primary Realtime Clock</Description><StartTime><Timestamp dt:dt=""int"">0</Timestamp><DateUtc dt:dt=""string"">2013-05-23T19:51:23Z</DateUtc></StartTime><FrequencyChanges><FrequencyChange><Frequency dt:dt=""r8"">2394030000</Frequency><Timestamp dt:dt=""r8"">1.92503061321221E+16</Timestamp><Current dt:dt=""r8"">0</Current><DateUtc dt:dt=""string"">2013-05-23T19:51:23Z</DateUtc></FrequencyChange></FrequencyChanges></Clock>\n",60.071,1,-999999,7,184717,1194644594,116114,117831,187697,1077,5/23/13,12:51:23,7:51:23 PM,13,,,,,,,,1,1,1,,,,,,,BlockProc,ExperBlockList,,,,,,,,,,,,,,,57,0,17,339186,AN.bmp,,E,,A,E,bottom,AwareTrialProc,TrialList,500,0,,-999999,16,339702,1,650,340352,AN.bmp,,,59,1,57,filler,neuneuDP_Faces_A_new_2,501,1,"<?xml version=""1.0""?>\n<Clock xmlns:dt=""urn:schemas-microsoft-com:datatypes""><Description dt:dt=""string"">E-Prime Primary Realtime Clock</Description><StartTime><Timestamp dt:dt=""int"">0</Timestamp><DateUtc dt:dt=""string"">2013-05-23T19:51:23Z</DateUtc></StartTime><FrequencyChanges><FrequencyChange><Frequency dt:dt=""r8"">2394030000</Frequency><Timestamp dt:dt=""r8"">1.92503061321221E+16</Timestamp><Current dt:dt=""r8"">0</Current><DateUtc dt:dt=""string"">2013-05-23T19:51:23Z</DateUtc></FrequencyChange></FrequencyChanges></Clock>\n",60.071,1,-999999,7,184717,1194644594,116114,117831,187697,1077,5/23/13,12:51:23,7:51:23 PM,13,,,,,,,,1,1,1,,,,,,,BlockProc,ExperBlockList,,,,,,,,,,,,,,,58,0,16,341899,EN.bmp,,,top,E,F,top,AwareTrialProc,TrialList,500,0,,-999999,16,342415,2,537,342952,EH.bmp,,F,63,1,58,critical,happyneuDP_Faces_A_new_2,501,1,"<?xml version=""1.0""?>\n<Clock xmlns:dt=""urn:schemas-microsoft-com:datatypes""><Description dt:dt=""string"">E-Prime Primary Realtime Clock</Description><StartTime><Timestamp dt:dt=""int"">0</Timestamp><DateUtc dt:dt=""string"">2013-05-23T19:51:23Z</DateUtc></StartTime><FrequencyChanges><FrequencyChange><Frequency dt:dt=""r8"">2394030000</Frequency><Timestamp dt:dt=""r8"">1.92503061321221E+16</Timestamp><Current dt:dt=""r8"">0</Current><DateUtc dt:dt=""string"">2013-05-23T19:51:23Z</DateUtc></FrequencyChange></FrequencyChanges></Clock>\n",60.071,1,-999999,7,184717,1194644594,116114,117831,187697,1077,5/23/13,12:51:23,7:51:23 PM,13,,,,,,,,1,1,1,,,,,,,BlockProc,ExperBlockList,,,,,,,,,,,,,,,59,0,16,344496,GN.bmp,,F,,G,F,bottom,AwareTrialProc,TrialList,500,0,,-999999,16,345012,2,563,345575,GN.bmp,,,84,1,59,filler,neuneuDP_Faces_A_new_2,501,1,"<?xml version=""1.0""?>\n<Clock xmlns:dt=""urn:schemas-microsoft-com:datatypes""><Description dt:dt=""string"">E-Prime Primary Realtime Clock</Description><StartTime><Timestamp dt:dt=""int"">0</Timestamp><DateUtc dt:dt=""string"">2013-05-23T19:51:23Z</DateUtc></StartTime><FrequencyChanges><FrequencyChange><Frequency dt:dt=""r8"">2394030000</Frequency><Timestamp dt:dt=""r8"">1.92503061321221E+16</Timestamp><Current dt:dt=""r8"">0</Current><DateUtc dt:dt=""string"">2013-05-23T19:51:23Z</DateUtc></FrequencyChange></FrequencyChanges></Clock>\n",60.071,1,-999999,7,184717,1194644594,116114,117831,187697,1077,5/23/13,12:51:23,7:51:23 PM,13,,,,,,,,1,1,1,,,,,,,BlockProc,ExperBlockList,,,,,,,,,,,,,,,60,0,17,347110,IN.bmp,,E,top,I,E,bottom,AwareTrialProc,TrialList,500,0,,-999999,16,347626,1,621,348247,ID.bmp,,,5,1,60,critical,disgustneuDP_Faces_A_new_2,501,1,"<?xml version=""1.0""?>\n<Clock xmlns:dt=""urn:schemas-microsoft-com:datatypes""><Description dt:dt=""string"">E-Prime Primary Realtime Clock</Description><StartTime><Timestamp dt:dt=""int"">0</Timestamp><DateUtc dt:dt=""string"">2013-05-23T19:51:23Z</DateUtc></StartTime><FrequencyChanges><FrequencyChange><Frequency dt:dt=""r8"">2394030000</Frequency><Timestamp dt:dt=""r8"">1.92503061321221E+16</Timestamp><Current dt:dt=""r8"">0</Current><DateUtc dt:dt=""string"">2013-05-23T19:51:23Z</DateUtc></FrequencyChange></FrequencyChanges></Clock>\n",60.071,1,-999999,7,184717,1194644594,116114,117831,187697,1077,5/23/13,12:51:23,7:51:23 PM,13,,,,,,,,1,1,1,,,,,,,BlockProc,ExperBlockList,,,,,,,,,,,,,,,61,0,16,349790,KD.bmp,,E,bottom,K,E,bottom,AwareTrialProc,TrialList,500,0,,-999999,16,350306,1,590,350896,KN.bmp,,,30,1,61,critical,disgustneuDP_Faces_A_new_2,501,1,"<?xml version=""1.0""?>\n<Clock xmlns:dt=""urn:schemas-microsoft-com:datatypes""><Description dt:dt=""string"">E-Prime Primary Realtime Clock</Description><StartTime><Timestamp dt:dt=""int"">0</Timestamp><DateUtc dt:dt=""string"">2013-05-23T19:51:23Z</DateUtc></StartTime><FrequencyChanges><FrequencyChange><Frequency dt:dt=""r8"">2394030000</Frequency><Timestamp dt:dt=""r8"">1.92503061321221E+16</Timestamp><Current dt:dt=""r8"">0</Current><DateUtc dt:dt=""string"">2013-05-23T19:51:23Z</DateUtc></FrequencyChange></FrequencyChanges></Clock>\n",60.071,1,-999999,7,184717,1194644594,116114,117831,187697,1077,5/23/13,12:51:23,7:51:23 PM,13,,,,,,,,1,1,1,,,,,,,BlockProc,ExperBlockList,,,,,,,,,,,,,,,62,0,16,352437,KN.bmp,,E,,K,E,bottom,AwareTrialProc,TrialList,500,0,,-999999,16,352953,1,550,353503,KN.bmp,,,35,1,62,filler,neuneuDP_Faces_A_new_2,501,1,"<?xml version=""1.0""?>\n<Clock xmlns:dt=""urn:schemas-microsoft-com:datatypes""><Description dt:dt=""string"">E-Prime Primary Realtime Clock</Description><StartTime><Timestamp dt:dt=""int"">0</Timestamp><DateUtc dt:dt=""string"">2013-05-23T19:51:23Z</DateUtc></StartTime><FrequencyChanges><FrequencyChange><Frequency dt:dt=""r8"">2394030000</Frequency><Timestamp dt:dt=""r8"">1.92503061321221E+16</Timestamp><Current dt:dt=""r8"">0</Current><DateUtc dt:dt=""string"">2013-05-23T19:51:23Z</DateUtc></FrequencyChange></FrequencyChanges></Clock>\n",60.071,1,-999999,7,184717,1194644594,116114,117831,187697,1077,5/23/13,12:51:23,7:51:23 PM,13,,,,,,,,1,1,1,,,,,,,BlockProc,ExperBlockList,,,,,,,,,,,,,,,63,0,16,355050,CN.bmp,,,top,C,E,top,AwareTrialProc,TrialList,500,0,,-999999,16,355566,1,705,356271,CH.bmp,,E,85,1,63,critical,happyneuDP_Faces_A_new_2,501,1,"<?xml version=""1.0""?>\n<Clock xmlns:dt=""urn:schemas-microsoft-com:datatypes""><Description dt:dt=""string"">E-Prime Primary Realtime Clock</Description><StartTime><Timestamp dt:dt=""int"">0</Timestamp><DateUtc dt:dt=""string"">2013-05-23T19:51:23Z</DateUtc></StartTime><FrequencyChanges><FrequencyChange><Frequency dt:dt=""r8"">2394030000</Frequency><Timestamp dt:dt=""r8"">1.92503061321221E+16</Timestamp><Current dt:dt=""r8"">0</Current><DateUtc dt:dt=""string"">2013-05-23T19:51:23Z</DateUtc></FrequencyChange></FrequencyChanges></Clock>\n",60.071,1,-999999,7,184717,1194644594,116114,117831,187697,1077,5/23/13,12:51:23,7:51:23 PM,13,,,,,,,,1,1,1,,,,,,,BlockProc,ExperBlockList,,,,,,,,,,,,,,,64,0,16,357814,CH.bmp,,E,bottom,C,E,bottom,AwareTrialProc,TrialList,500,0,,-999999,16,358330,1,757,359087,CN.bmp,,,90,1,64,critical,happyneuDP_Faces_A_new_2,501,1,"<?xml version=""1.0""?>\n<Clock xmlns:dt=""urn:schemas-microsoft-com:datatypes""><Description dt:dt=""string"">E-Prime Primary Realtime Clock</Description><StartTime><Timestamp dt:dt=""int"">0</Timestamp><DateUtc dt:dt=""string"">2013-05-23T19:51:23Z</DateUtc></StartTime><FrequencyChanges><FrequencyChange><Frequency dt:dt=""r8"">2394030000</Frequency><Timestamp dt:dt=""r8"">1.92503061321221E+16</Timestamp><Current dt:dt=""r8"">0</Current><DateUtc dt:dt=""string"">2013-05-23T19:51:23Z</DateUtc></FrequencyChange></FrequencyChanges></Clock>\n",60.071,1,-999999,7,184717,1194644594,116114,117831,187697,1077,5/23/13,12:51:23,7:51:23 PM,13,,,,,,,,1,1,1,,,,,,,BlockProc,ExperBlockList,,,,,,,,,,,,,,,65,0,16,360627,JD.bmp,,,bottom,J,F,top,AwareTrialProc,TrialList,500,0,,-999999,16,361143,2,528,361671,JN.bmp,,F,16,1,65,critical,disgustneuDP_Faces_A_new_2,501,1,"<?xml version=""1.0""?>\n<Clock xmlns:dt=""urn:schemas-microsoft-com:datatypes""><Description dt:dt=""string"">E-Prime Primary Realtime Clock</Description><StartTime><Timestamp dt:dt=""int"">0</Timestamp><DateUtc dt:dt=""string"">2013-05-23T19:51:23Z</DateUtc></StartTime><FrequencyChanges><FrequencyChange><Frequency dt:dt=""r8"">2394030000</Frequency><Timestamp dt:dt=""r8"">1.92503061321221E+16</Timestamp><Current dt:dt=""r8"">0</Current><DateUtc dt:dt=""string"">2013-05-23T19:51:23Z</DateUtc></FrequencyChange></FrequencyChanges></Clock>\n",60.071,1,-999999,7,184717,1194644594,116114,117831,187697,1077,5/23/13,12:51:23,7:51:23 PM,13,,,,,,,,1,1,1,,,,,,,BlockProc,ExperBlockList,,,,,,,,,,,,,,,66,0,16,363207,EN.bmp,,,,E,E,top,AwareTrialProc,TrialList,500,0,,-999999,16,363723,1,644,364367,EN.bmp,,E,69,1,66,filler,neuneuDP_Faces_A_new_2,501,1,"<?xml version=""1.0""?>\n<Clock xmlns:dt=""urn:schemas-microsoft-com:datatypes""><Description dt:dt=""string"">E-Prime Primary Realtime Clock</Description><StartTime><Timestamp dt:dt=""int"">0</Timestamp><DateUtc dt:dt=""string"">2013-05-23T19:51:23Z</DateUtc></StartTime><FrequencyChanges><FrequencyChange><Frequency dt:dt=""r8"">2394030000</Frequency><Timestamp dt:dt=""r8"">1.92503061321221E+16</Timestamp><Current dt:dt=""r8"">0</Current><DateUtc dt:dt=""string"">2013-05-23T19:51:23Z</DateUtc></FrequencyChange></FrequencyChanges></Clock>\n",60.071,1,-999999,7,184717,1194644594,116114,117831,187697,1077,5/23/13,12:51:23,7:51:23 PM,13,,,,,,,,1,1,1,,,,,,,BlockProc,ExperBlockList,,,,,,,,,,,,,,,67,0,16,365904,EN.bmp,,,,E,F,top,AwareTrialProc,TrialList,500,0,,-999999,16,366420,2,539,366959,EN.bmp,,F,70,1,67,filler,neuneuDP_Faces_A_new_2,501,1,"<?xml version=""1.0""?>\n<Clock xmlns:dt=""urn:schemas-microsoft-com:datatypes""><Description dt:dt=""string"">E-Prime Primary Realtime Clock</Description><StartTime><Timestamp dt:dt=""int"">0</Timestamp><DateUtc dt:dt=""string"">2013-05-23T19:51:23Z</DateUtc></StartTime><FrequencyChanges><FrequencyChange><Frequency dt:dt=""r8"">2394030000</Frequency><Timestamp dt:dt=""r8"">1.92503061321221E+16</Timestamp><Current dt:dt=""r8"">0</Current><DateUtc dt:dt=""string"">2013-05-23T19:51:23Z</DateUtc></FrequencyChange></FrequencyChanges></Clock>\n",60.071,1,-999999,7,184717,1194644594,116114,117831,187697,1077,5/23/13,12:51:23,7:51:23 PM,13,,,,,,,,1,1,1,,,,,,,BlockProc,ExperBlockList,,,,,,,,,,,,,,,68,0,16,368501,LN.bmp,,E,top,L,E,bottom,AwareTrialProc,TrialList,500,0,,-999999,16,369017,1,574,369591,LD.bmp,,,41,1,68,critical,disgustneuDP_Faces_A_new_2,501,1,"<?xml version=""1.0""?>\n<Clock xmlns:dt=""urn:schemas-microsoft-com:datatypes""><Description dt:dt=""string"">E-Prime Primary Realtime Clock</Description><StartTime><Timestamp dt:dt=""int"">0</Timestamp><DateUtc dt:dt=""string"">2013-05-23T19:51:23Z</DateUtc></StartTime><FrequencyChanges><FrequencyChange><Frequency dt:dt=""r8"">2394030000</Frequency><Timestamp dt:dt=""r8"">1.92503061321221E+16</Timestamp><Current dt:dt=""r8"">0</Current><DateUtc dt:dt=""string"">2013-05-23T19:51:23Z</DateUtc></FrequencyChange></FrequencyChanges></Clock>\n",60.071,1,-999999,7,184717,1194644594,116114,117831,187697,1077,5/23/13,12:51:23,7:51:23 PM,13,,,,,,,,1,1,1,,,,,,,BlockProc,ExperBlockList,,,,,,,,,,,,,,,69,0,16,371131,EH.bmp,,F,bottom,E,F,bottom,AwareTrialProc,TrialList,500,0,,-999999,16,371647,2,752,372399,EN.bmp,,,68,1,69,critical,happyneuDP_Faces_A_new_2,501,1,"<?xml version=""1.0""?>\n<Clock xmlns:dt=""urn:schemas-microsoft-com:datatypes""><Description dt:dt=""string"">E-Prime Primary Realtime Clock</Description><StartTime><Timestamp dt:dt=""int"">0</Timestamp><DateUtc dt:dt=""string"">2013-05-23T19:51:23Z</DateUtc></StartTime><FrequencyChanges><FrequencyChange><Frequency dt:dt=""r8"">2394030000</Frequency><Timestamp dt:dt=""r8"">1.92503061321221E+16</Timestamp><Current dt:dt=""r8"">0</Current><DateUtc dt:dt=""string"">2013-05-23T19:51:23Z</DateUtc></FrequencyChange></FrequencyChanges></Clock>\n",60.071,1,-999999,7,184717,1194644594,116114,117831,187697,1077,5/23/13,12:51:23,7:51:23 PM,13,,,,,,,,1,1,1,,,,,,,BlockProc,ExperBlockList,,,,,,,,,,,,,,,70,0,16,373945,KN.bmp,,E,top,K,E,bottom,AwareTrialProc,TrialList,500,0,,-999999,16,374461,1,650,375111,KD.bmp,,,29,1,70,critical,disgustneuDP_Faces_A_new_2,501,1,"<?xml version=""1.0""?>\n<Clock xmlns:dt=""urn:schemas-microsoft-com:datatypes""><Description dt:dt=""string"">E-Prime Primary Realtime Clock</Description><StartTime><Timestamp dt:dt=""int"">0</Timestamp><DateUtc dt:dt=""string"">2013-05-23T19:51:23Z</DateUtc></StartTime><FrequencyChanges><FrequencyChange><Frequency dt:dt=""r8"">2394030000</Frequency><Timestamp dt:dt=""r8"">1.92503061321221E+16</Timestamp><Current dt:dt=""r8"">0</Current><DateUtc dt:dt=""string"">2013-05-23T19:51:23Z</DateUtc></FrequencyChange></FrequencyChanges></Clock>\n",60.071,1,-999999,7,184717,1194644594,116114,117831,187697,1077,5/23/13,12:51:23,7:51:23 PM,13,,,,,,,,1,1,1,,,,,,,BlockProc,ExperBlockList,,,,,,,,,,,,,,,71,0,16,376658,JN.bmp,,,top,J,E,top,AwareTrialProc,TrialList,500,0,,-999999,16,377174,1,513,377687,JD.bmp,,E,13,1,71,critical,disgustneuDP_Faces_A_new_2,501,1,"<?xml version=""1.0""?>\n<Clock xmlns:dt=""urn:schemas-microsoft-com:datatypes""><Description dt:dt=""string"">E-Prime Primary Realtime Clock</Description><StartTime><Timestamp dt:dt=""int"">0</Timestamp><DateUtc dt:dt=""string"">2013-05-23T19:51:23Z</DateUtc></StartTime><FrequencyChanges><FrequencyChange><Frequency dt:dt=""r8"">2394030000</Frequency><Timestamp dt:dt=""r8"">1.92503061321221E+16</Timestamp><Current dt:dt=""r8"">0</Current><DateUtc dt:dt=""string"">2013-05-23T19:51:23Z</DateUtc></FrequencyChange></FrequencyChanges></Clock>\n",60.071,1,-999999,7,184717,1194644594,116114,117831,187697,1077,5/23/13,12:51:23,7:51:23 PM,13,,,,,,,,1,1,1,,,,,,,BlockProc,ExperBlockList,,,,,,,,,,,,,,,72,0,16,379222,KD.bmp,,,bottom,K,E,top,AwareTrialProc,TrialList,500,0,,-999999,16,379738,1,709,380447,KN.bmp,,E,26,1,72,critical,disgustneuDP_Faces_A_new_2,501,1,"<?xml version=""1.0""?>\n<Clock xmlns:dt=""urn:schemas-microsoft-com:datatypes""><Description dt:dt=""string"">E-Prime Primary Realtime Clock</Description><StartTime><Timestamp dt:dt=""int"">0</Timestamp><DateUtc dt:dt=""string"">2013-05-23T19:51:23Z</DateUtc></StartTime><FrequencyChanges><FrequencyChange><Frequency dt:dt=""r8"">2394030000</Frequency><Timestamp dt:dt=""r8"">1.92503061321221E+16</Timestamp><Current dt:dt=""r8"">0</Current><DateUtc dt:dt=""string"">2013-05-23T19:51:23Z</DateUtc></FrequencyChange></FrequencyChanges></Clock>\n",60.071,1,-999999,7,184717,1194644594,116114,117831,187697,1077,5/23/13,12:51:23,7:51:23 PM,13,,,,,,,,1,1,1,,,,,,,BlockProc,ExperBlockList,,,,,,,,,,,,,,,73,0,16,381985,AH.bmp,,,bottom,A,E,top,AwareTrialProc,TrialList,500,0,,-999999,16,382501,1,489,382990,AN.bmp,,E,50,1,73,critical,happyneuDP_Faces_A_new_2,501,1,"<?xml version=""1.0""?>\n<Clock xmlns:dt=""urn:schemas-microsoft-com:datatypes""><Description dt:dt=""string"">E-Prime Primary Realtime Clock</Description><StartTime><Timestamp dt:dt=""int"">0</Timestamp><DateUtc dt:dt=""string"">2013-05-23T19:51:23Z</DateUtc></StartTime><FrequencyChanges><FrequencyChange><Frequency dt:dt=""r8"">2394030000</Frequency><Timestamp dt:dt=""r8"">1.92503061321221E+16</Timestamp><Current dt:dt=""r8"">0</Current><DateUtc dt:dt=""string"">2013-05-23T19:51:23Z</DateUtc></FrequencyChange></FrequencyChanges></Clock>\n",60.071,1,-999999,7,184717,1194644594,116114,117831,187697,1077,5/23/13,12:51:23,7:51:23 PM,13,,,,,,,,1,1,1,,,,,,,BlockProc,ExperBlockList,,,,,,,,,,,,,,,74,0,16,384532,JN.bmp,,E,,J,E,bottom,AwareTrialProc,TrialList,500,0,,-999999,16,385048,1,646,385694,JN.bmp,,,23,1,74,filler,neuneuDP_Faces_A_new_2,501,1,"<?xml version=""1.0""?>\n<Clock xmlns:dt=""urn:schemas-microsoft-com:datatypes""><Description dt:dt=""string"">E-Prime Primary Realtime Clock</Description><StartTime><Timestamp dt:dt=""int"">0</Timestamp><DateUtc dt:dt=""string"">2013-05-23T19:51:23Z</DateUtc></StartTime><FrequencyChanges><FrequencyChange><Frequency dt:dt=""r8"">2394030000</Frequency><Timestamp dt:dt=""r8"">1.92503061321221E+16</Timestamp><Current dt:dt=""r8"">0</Current><DateUtc dt:dt=""string"">2013-05-23T19:51:23Z</DateUtc></FrequencyChange></FrequencyChanges></Clock>\n",60.071,1,-999999,7,184717,1194644594,116114,117831,187697,1077,5/23/13,12:51:23,7:51:23 PM,13,,,,,,,,1,1,1,,,,,,,BlockProc,ExperBlockList,,,,,,,,,,,,,,,75,0,16,387229,CN.bmp,,F,,C,F,bottom,AwareTrialProc,TrialList,500,0,,-999999,16,387745,2,685,388430,CN.bmp,,,96,1,75,filler,neuneuDP_Faces_A_new_2,501,1,"<?xml version=""1.0""?>\n<Clock xmlns:dt=""urn:schemas-microsoft-com:datatypes""><Description dt:dt=""string"">E-Prime Primary Realtime Clock</Description><StartTime><Timestamp dt:dt=""int"">0</Timestamp><DateUtc dt:dt=""string"">2013-05-23T19:51:23Z</DateUtc></StartTime><FrequencyChanges><FrequencyChange><Frequency dt:dt=""r8"">2394030000</Frequency><Timestamp dt:dt=""r8"">1.92503061321221E+16</Timestamp><Current dt:dt=""r8"">0</Current><DateUtc dt:dt=""string"">2013-05-23T19:51:23Z</DateUtc></FrequencyChange></FrequencyChanges></Clock>\n",60.071,1,-999999,7,184717,1194644594,116114,117831,187697,1077,5/23/13,12:51:23,7:51:23 PM,13,,,,,,,,1,1,1,,,,,,,BlockProc,ExperBlockList,,,,,,,,,,,,,,,76,0,16,389976,JD.bmp,,,bottom,J,E,top,AwareTrialProc,TrialList,500,0,,-999999,16,390492,1,682,391174,JN.bmp,,E,14,1,76,critical,disgustneuDP_Faces_A_new_2,501,1,"<?xml version=""1.0""?>\n<Clock xmlns:dt=""urn:schemas-microsoft-com:datatypes""><Description dt:dt=""string"">E-Prime Primary Realtime Clock</Description><StartTime><Timestamp dt:dt=""int"">0</Timestamp><DateUtc dt:dt=""string"">2013-05-23T19:51:23Z</DateUtc></StartTime><FrequencyChanges><FrequencyChange><Frequency dt:dt=""r8"">2394030000</Frequency><Timestamp dt:dt=""r8"">1.92503061321221E+16</Timestamp><Current dt:dt=""r8"">0</Current><DateUtc dt:dt=""string"">2013-05-23T19:51:23Z</DateUtc></FrequencyChange></FrequencyChanges></Clock>\n",60.071,1,-999999,7,184717,1194644594,116114,117831,187697,1077,5/23/13,12:51:23,7:51:23 PM,13,,,,,,,,1,1,1,,,,,,,BlockProc,ExperBlockList,,,,,,,,,,,,,,,77,0,16,392723,GN.bmp,,,top,G,E,top,AwareTrialProc,TrialList,500,0,,-999999,16,393239,1,591,393830,GH.bmp,,E,73,1,77,critical,happyneuDP_Faces_A_new_2,501,1,"<?xml version=""1.0""?>\n<Clock xmlns:dt=""urn:schemas-microsoft-com:datatypes""><Description dt:dt=""string"">E-Prime Primary Realtime Clock</Description><StartTime><Timestamp dt:dt=""int"">0</Timestamp><DateUtc dt:dt=""string"">2013-05-23T19:51:23Z</DateUtc></StartTime><FrequencyChanges><FrequencyChange><Frequency dt:dt=""r8"">2394030000</Frequency><Timestamp dt:dt=""r8"">1.92503061321221E+16</Timestamp><Current dt:dt=""r8"">0</Current><DateUtc dt:dt=""string"">2013-05-23T19:51:23Z</DateUtc></FrequencyChange></FrequencyChanges></Clock>\n",60.071,1,-999999,7,184717,1194644594,116114,117831,187697,1077,5/23/13,12:51:23,7:51:23 PM,13,,,,,,,,1,1,1,,,,,,,BlockProc,ExperBlockList,,,,,,,,,,,,,,,78,0,17,395370,GN.bmp,,,,G,E,top,AwareTrialProc,TrialList,500,0,,-999999,16,395886,1,560,396446,GN.bmp,,E,81,1,78,filler,neuneuDP_Faces_A_new_2,501,1,"<?xml version=""1.0""?>\n<Clock xmlns:dt=""urn:schemas-microsoft-com:datatypes""><Description dt:dt=""string"">E-Prime Primary Realtime Clock</Description><StartTime><Timestamp dt:dt=""int"">0</Timestamp><DateUtc dt:dt=""string"">2013-05-23T19:51:23Z</DateUtc></StartTime><FrequencyChanges><FrequencyChange><Frequency dt:dt=""r8"">2394030000</Frequency><Timestamp dt:dt=""r8"">1.92503061321221E+16</Timestamp><Current dt:dt=""r8"">0</Current><DateUtc dt:dt=""string"">2013-05-23T19:51:23Z</DateUtc></FrequencyChange></FrequencyChanges></Clock>\n",60.071,1,-999999,7,184717,1194644594,116114,117831,187697,1077,5/23/13,12:51:23,7:51:23 PM,13,,,,,,,,1,1,1,,,,,,,BlockProc,ExperBlockList,,,,,,,,,,,,,,,79,0,16,397983,AN.bmp,,,,A,F,top,AwareTrialProc,TrialList,500,0,,-999999,16,398499,1,787,399286,AN.bmp,,F,58,1,79,filler,neuneuDP_Faces_A_new_2,501,1,"<?xml version=""1.0""?>\n<Clock xmlns:dt=""urn:schemas-microsoft-com:datatypes""><Description dt:dt=""string"">E-Prime Primary Realtime Clock</Description><StartTime><Timestamp dt:dt=""int"">0</Timestamp><DateUtc dt:dt=""string"">2013-05-23T19:51:23Z</DateUtc></StartTime><FrequencyChanges><FrequencyChange><Frequency dt:dt=""r8"">2394030000</Frequency><Timestamp dt:dt=""r8"">1.92503061321221E+16</Timestamp><Current dt:dt=""r8"">0</Current><DateUtc dt:dt=""string"">2013-05-23T19:51:23Z</DateUtc></FrequencyChange></FrequencyChanges></Clock>\n",60.071,1,-999999,7,184717,1194644594,116114,117831,187697,1077,5/23/13,12:51:23,7:51:23 PM,13,,,,,,,,1,1,1,,,,,,,BlockProc,ExperBlockList,,,,,,,,,,,,,,,80,0,16,400830,AN.bmp,,,top,A,F,top,AwareTrialProc,TrialList,500,0,,-999999,16,401346,2,740,402086,AH.bmp,,F,51,1,80,critical,happyneuDP_Faces_A_new_2,501,1,"<?xml version=""1.0""?>\n<Clock xmlns:dt=""urn:schemas-microsoft-com:datatypes""><Description dt:dt=""string"">E-Prime Primary Realtime Clock</Description><StartTime><Timestamp dt:dt=""int"">0</Timestamp><DateUtc dt:dt=""string"">2013-05-23T19:51:23Z</DateUtc></StartTime><FrequencyChanges><FrequencyChange><Frequency dt:dt=""r8"">2394030000</Frequency><Timestamp dt:dt=""r8"">1.92503061321221E+16</Timestamp><Current dt:dt=""r8"">0</Current><DateUtc dt:dt=""string"">2013-05-23T19:51:23Z</DateUtc></FrequencyChange></FrequencyChanges></Clock>\n",60.071,1,-999999,7,184717,1194644594,116114,117831,187697,1077,5/23/13,12:51:23,7:51:23 PM,13,,,,,,,,1,1,1,,,,,,,BlockProc,ExperBlockList,,,,,,,,,,,,,,,81,0,17,403627,EH.bmp,,,bottom,E,E,top,AwareTrialProc,TrialList,500,0,,-999999,16,404143,1,543,404686,EN.bmp,,E,62,1,81,critical,happyneuDP_Faces_A_new_2,501,1,"<?xml version=""1.0""?>\n<Clock xmlns:dt=""urn:schemas-microsoft-com:datatypes""><Description dt:dt=""string"">E-Prime Primary Realtime Clock</Description><StartTime><Timestamp dt:dt=""int"">0</Timestamp><DateUtc dt:dt=""string"">2013-05-23T19:51:23Z</DateUtc></StartTime><FrequencyChanges><FrequencyChange><Frequency dt:dt=""r8"">2394030000</Frequency><Timestamp dt:dt=""r8"">1.92503061321221E+16</Timestamp><Current dt:dt=""r8"">0</Current><DateUtc dt:dt=""string"">2013-05-23T19:51:23Z</DateUtc></FrequencyChange></FrequencyChanges></Clock>\n",60.071,1,-999999,7,184717,1194644594,116114,117831,187697,1077,5/23/13,12:51:23,7:51:23 PM,13,,,,,,,,1,1,1,,,,,,,BlockProc,ExperBlockList,,,,,,,,,,,,,,,82,0,16,406223,EN.bmp,,F,top,E,F,bottom,AwareTrialProc,TrialList,500,0,,-999999,17,406740,2,706,407446,EH.bmp,,,67,1,82,critical,happyneuDP_Faces_A_new_2,501,1,"<?xml version=""1.0""?>\n<Clock xmlns:dt=""urn:schemas-microsoft-com:datatypes""><Description dt:dt=""string"">E-Prime Primary Realtime Clock</Description><StartTime><Timestamp dt:dt=""int"">0</Timestamp><DateUtc dt:dt=""string"">2013-05-23T19:51:23Z</DateUtc></StartTime><FrequencyChanges><FrequencyChange><Frequency dt:dt=""r8"">2394030000</Frequency><Timestamp dt:dt=""r8"">1.92503061321221E+16</Timestamp><Current dt:dt=""r8"">0</Current><DateUtc dt:dt=""string"">2013-05-23T19:51:23Z</DateUtc></FrequencyChange></FrequencyChanges></Clock>\n",60.071,1,-999999,7,184717,1194644594,116114,117831,187697,1077,5/23/13,12:51:23,7:51:23 PM,13,,,,,,,,1,1,1,,,,,,,BlockProc,ExperBlockList,,,,,,,,,,,,,,,83,0,16,408987,LN.bmp,,,top,L,E,top,AwareTrialProc,TrialList,500,0,,-999999,16,409503,2,599,410102,LD.bmp,,E,37,1,83,critical,disgustneuDP_Faces_A_new_2,501,1,"<?xml version=""1.0""?>\n<Clock xmlns:dt=""urn:schemas-microsoft-com:datatypes""><Description dt:dt=""string"">E-Prime Primary Realtime Clock</Description><StartTime><Timestamp dt:dt=""int"">0</Timestamp><DateUtc dt:dt=""string"">2013-05-23T19:51:23Z</DateUtc></StartTime><FrequencyChanges><FrequencyChange><Frequency dt:dt=""r8"">2394030000</Frequency><Timestamp dt:dt=""r8"">1.92503061321221E+16</Timestamp><Current dt:dt=""r8"">0</Current><DateUtc dt:dt=""string"">2013-05-23T19:51:23Z</DateUtc></FrequencyChange></FrequencyChanges></Clock>\n",60.071,1,-999999,7,184717,1194644594,116114,117831,187697,1077,5/23/13,12:51:23,7:51:23 PM,13,,,,,,,,1,1,1,,,,,,,BlockProc,ExperBlockList,,,,,,,,,,,,,,,84,0,16,411650,EN.bmp,,F,,E,F,bottom,AwareTrialProc,TrialList,500,0,,-999999,16,412166,2,744,412910,EN.bmp,,,72,1,84,filler,neuneuDP_Faces_A_new_2,501,1,"<?xml version=""1.0""?>\n<Clock xmlns:dt=""urn:schemas-microsoft-com:datatypes""><Description dt:dt=""string"">E-Prime Primary Realtime Clock</Description><StartTime><Timestamp dt:dt=""int"">0</Timestamp><DateUtc dt:dt=""string"">2013-05-23T19:51:23Z</DateUtc></StartTime><FrequencyChanges><FrequencyChange><Frequency dt:dt=""r8"">2394030000</Frequency><Timestamp dt:dt=""r8"">1.92503061321221E+16</Timestamp><Current dt:dt=""r8"">0</Current><DateUtc dt:dt=""string"">2013-05-23T19:51:23Z</DateUtc></FrequencyChange></FrequencyChanges></Clock>\n",60.071,1,-999999,7,184717,1194644594,116114,117831,187697,1077,5/23/13,12:51:23,7:51:23 PM,13,,,,,,,,1,1,1,,,,,,,BlockProc,ExperBlockList,,,,,,,,,,,,,,,85,0,16,414447,IN.bmp,,E,,I,E,bottom,AwareTrialProc,TrialList,500,0,,-999999,16,414963,1,787,415750,IN.bmp,,,11,1,85,filler,neuneuDP_Faces_A_new_2,501,1,"<?xml version=""1.0""?>\n<Clock xmlns:dt=""urn:schemas-microsoft-com:datatypes""><Description dt:dt=""string"">E-Prime Primary Realtime Clock</Description><StartTime><Timestamp dt:dt=""int"">0</Timestamp><DateUtc dt:dt=""string"">2013-05-23T19:51:23Z</DateUtc></StartTime><FrequencyChanges><FrequencyChange><Frequency dt:dt=""r8"">2394030000</Frequency><Timestamp dt:dt=""r8"">1.92503061321221E+16</Timestamp><Current dt:dt=""r8"">0</Current><DateUtc dt:dt=""string"">2013-05-23T19:51:23Z</DateUtc></FrequencyChange></FrequencyChanges></Clock>\n",60.071,1,-999999,7,184717,1194644594,116114,117831,187697,1077,5/23/13,12:51:23,7:51:23 PM,13,,,,,,,,1,1,1,,,,,,,BlockProc,ExperBlockList,,,,,,,,,,,,,,,86,0,16,417294,CN.bmp,,F,top,C,F,bottom,AwareTrialProc,TrialList,500,0,,-999999,16,417810,2,556,418366,CH.bmp,,,91,1,86,critical,happyneuDP_Faces_A_new_2,501,1,"<?xml version=""1.0""?>\n<Clock xmlns:dt=""urn:schemas-microsoft-com:datatypes""><Description dt:dt=""string"">E-Prime Primary Realtime Clock</Description><StartTime><Timestamp dt:dt=""int"">0</Timestamp><DateUtc dt:dt=""string"">2013-05-23T19:51:23Z</DateUtc></StartTime><FrequencyChanges><FrequencyChange><Frequency dt:dt=""r8"">2394030000</Frequency><Timestamp dt:dt=""r8"">1.92503061321221E+16</Timestamp><Current dt:dt=""r8"">0</Current><DateUtc dt:dt=""string"">2013-05-23T19:51:23Z</DateUtc></FrequencyChange></FrequencyChanges></Clock>\n",60.071,1,-999999,7,184717,1194644594,116114,117831,187697,1077,5/23/13,12:51:23,7:51:23 PM,13,,,,,,,,1,1,1,,,,,,,BlockProc,ExperBlockList,,,,,,,,,,,,,,,87,0,16,419907,AH.bmp,,,bottom,A,F,top,AwareTrialProc,TrialList,500,0,,-999999,16,420423,2,567,420990,AN.bmp,,F,52,1,87,critical,happyneuDP_Faces_A_new_2,501,1,"<?xml version=""1.0""?>\n<Clock xmlns:dt=""urn:schemas-microsoft-com:datatypes""><Description dt:dt=""string"">E-Prime Primary Realtime Clock</Description><StartTime><Timestamp dt:dt=""int"">0</Timestamp><DateUtc dt:dt=""string"">2013-05-23T19:51:23Z</DateUtc></StartTime><FrequencyChanges><FrequencyChange><Frequency dt:dt=""r8"">2394030000</Frequency><Timestamp dt:dt=""r8"">1.92503061321221E+16</Timestamp><Current dt:dt=""r8"">0</Current><DateUtc dt:dt=""string"">2013-05-23T19:51:23Z</DateUtc></FrequencyChange></FrequencyChanges></Clock>\n",60.071,1,-999999,7,184717,1194644594,116114,117831,187697,1077,5/23/13,12:51:23,7:51:23 PM,13,,,,,,,,1,1,1,,,,,,,BlockProc,ExperBlockList,,,,,,,,,,,,,,,88,0,16,422538,EN.bmp,,,top,E,E,top,AwareTrialProc,TrialList,500,0,,-999999,16,423054,1,568,423622,EH.bmp,,E,61,1,88,critical,happyneuDP_Faces_A_new_2,501,1,"<?xml version=""1.0""?>\n<Clock xmlns:dt=""urn:schemas-microsoft-com:datatypes""><Description dt:dt=""string"">E-Prime Primary Realtime Clock</Description><StartTime><Timestamp dt:dt=""int"">0</Timestamp><DateUtc dt:dt=""string"">2013-05-23T19:51:23Z</DateUtc></StartTime><FrequencyChanges><FrequencyChange><Frequency dt:dt=""r8"">2394030000</Frequency><Timestamp dt:dt=""r8"">1.92503061321221E+16</Timestamp><Current dt:dt=""r8"">0</Current><DateUtc dt:dt=""string"">2013-05-23T19:51:23Z</DateUtc></FrequencyChange></FrequencyChanges></Clock>\n",60.071,1,-999999,7,184717,1194644594,116114,117831,187697,1077,5/23/13,12:51:23,7:51:23 PM,13,,,,,,,,1,1,1,,,,,,,BlockProc,ExperBlockList,,,,,,,,,,,,,,,89,0,16,425168,GN.bmp,,,top,G,F,top,AwareTrialProc,TrialList,500,0,,-999999,16,425684,2,554,426238,GH.bmp,,F,75,1,89,critical,happyneuDP_Faces_A_new_2,501,1,"<?xml version=""1.0""?>\n<Clock xmlns:dt=""urn:schemas-microsoft-com:datatypes""><Description dt:dt=""string"">E-Prime Primary Realtime Clock</Description><StartTime><Timestamp dt:dt=""int"">0</Timestamp><DateUtc dt:dt=""string"">2013-05-23T19:51:23Z</DateUtc></StartTime><FrequencyChanges><FrequencyChange><Frequency dt:dt=""r8"">2394030000</Frequency><Timestamp dt:dt=""r8"">1.92503061321221E+16</Timestamp><Current dt:dt=""r8"">0</Current><DateUtc dt:dt=""string"">2013-05-23T19:51:23Z</DateUtc></FrequencyChange></FrequencyChanges></Clock>\n",60.071,1,-999999,7,184717,1194644594,116114,117831,187697,1077,5/23/13,12:51:23,7:51:23 PM,13,,,,,,,,1,1,1,,,,,,,BlockProc,ExperBlockList,,,,,,,,,,,,,,,90,0,16,427781,LD.bmp,,,bottom,L,F,top,AwareTrialProc,TrialList,500,0,,-999999,17,428298,2,508,428806,LN.bmp,,F,40,1,90,critical,disgustneuDP_Faces_A_new_2,501,1,"<?xml version=""1.0""?>\n<Clock xmlns:dt=""urn:schemas-microsoft-com:datatypes""><Description dt:dt=""string"">E-Prime Primary Realtime Clock</Description><StartTime><Timestamp dt:dt=""int"">0</Timestamp><DateUtc dt:dt=""string"">2013-05-23T19:51:23Z</DateUtc></StartTime><FrequencyChanges><FrequencyChange><Frequency dt:dt=""r8"">2394030000</Frequency><Timestamp dt:dt=""r8"">1.92503061321221E+16</Timestamp><Current dt:dt=""r8"">0</Current><DateUtc dt:dt=""string"">2013-05-23T19:51:23Z</DateUtc></FrequencyChange></FrequencyChanges></Clock>\n",60.071,1,-999999,7,184717,1194644594,116114,117831,187697,1077,5/23/13,12:51:23,7:51:23 PM,13,,,,,,,,1,1,1,,,,,,,BlockProc,ExperBlockList,,,,,,,,,,,,,,,91,0,16,430345,KD.bmp,,,bottom,K,F,top,AwareTrialProc,TrialList,500,0,,-999999,16,430861,2,569,431430,KN.bmp,,F,28,1,91,critical,disgustneuDP_Faces_A_new_2,501,1,"<?xml version=""1.0""?>\n<Clock xmlns:dt=""urn:schemas-microsoft-com:datatypes""><Description dt:dt=""string"">E-Prime Primary Realtime Clock</Description><StartTime><Timestamp dt:dt=""int"">0</Timestamp><DateUtc dt:dt=""string"">2013-05-23T19:51:23Z</DateUtc></StartTime><FrequencyChanges><FrequencyChange><Frequency dt:dt=""r8"">2394030000</Frequency><Timestamp dt:dt=""r8"">1.92503061321221E+16</Timestamp><Current dt:dt=""r8"">0</Current><DateUtc dt:dt=""string"">2013-05-23T19:51:23Z</DateUtc></FrequencyChange></FrequencyChanges></Clock>\n",60.071,1,-999999,7,184717,1194644594,116114,117831,187697,1077,5/23/13,12:51:23,7:51:23 PM,13,,,,,,,,1,1,1,,,,,,,BlockProc,ExperBlockList,,,,,,,,,,,,,,,92,0,16,432975,IN.bmp,,,,I,F,top,AwareTrialProc,TrialList,500,0,,-999999,16,433491,2,539,434030,IN.bmp,,F,10,1,92,filler,neuneuDP_Faces_A_new_2,501,1,"<?xml version=""1.0""?>\n<Clock xmlns:dt=""urn:schemas-microsoft-com:datatypes""><Description dt:dt=""string"">E-Prime Primary Realtime Clock</Description><StartTime><Timestamp dt:dt=""int"">0</Timestamp><DateUtc dt:dt=""string"">2013-05-23T19:51:23Z</DateUtc></StartTime><FrequencyChanges><FrequencyChange><Frequency dt:dt=""r8"">2394030000</Frequency><Timestamp dt:dt=""r8"">1.92503061321221E+16</Timestamp><Current dt:dt=""r8"">0</Current><DateUtc dt:dt=""string"">2013-05-23T19:51:23Z</DateUtc></FrequencyChange></FrequencyChanges></Clock>\n",60.071,1,-999999,7,184717,1194644594,116114,117831,187697,1077,5/23/13,12:51:23,7:51:23 PM,13,,,,,,,,1,1,1,,,,,,,BlockProc,ExperBlockList,,,,,,,,,,,,,,,93,0,16,435572,EN.bmp,,E,top,E,E,bottom,AwareTrialProc,TrialList,500,0,,-999999,16,436088,1,726,436814,EH.bmp,,,65,1,93,critical,happyneuDP_Faces_A_new_2,501,1,"<?xml version=""1.0""?>\n<Clock xmlns:dt=""urn:schemas-microsoft-com:datatypes""><Description dt:dt=""string"">E-Prime Primary Realtime Clock</Description><StartTime><Timestamp dt:dt=""int"">0</Timestamp><DateUtc dt:dt=""string"">2013-05-23T19:51:23Z</DateUtc></StartTime><FrequencyChanges><FrequencyChange><Frequency dt:dt=""r8"">2394030000</Frequency><Timestamp dt:dt=""r8"">1.92503061321221E+16</Timestamp><Current dt:dt=""r8"">0</Current><DateUtc dt:dt=""string"">2013-05-23T19:51:23Z</DateUtc></FrequencyChange></FrequencyChanges></Clock>\n",60.071,1,-999999,7,184717,1194644594,116114,117831,187697,1077,5/23/13,12:51:23,7:51:23 PM,13,,,,,,,,1,1,1,,,,,,,BlockProc,ExperBlockList,,,,,,,,,,,,,,,94,0,16,438352,CN.bmp,,,top,C,F,top,AwareTrialProc,TrialList,500,0,,-999999,16,438868,2,554,439422,CH.bmp,,F,87,1,94,critical,happyneuDP_Faces_A_new_2,501,1,"<?xml version=""1.0""?>\n<Clock xmlns:dt=""urn:schemas-microsoft-com:datatypes""><Description dt:dt=""string"">E-Prime Primary Realtime Clock</Description><StartTime><Timestamp dt:dt=""int"">0</Timestamp><DateUtc dt:dt=""string"">2013-05-23T19:51:23Z</DateUtc></StartTime><FrequencyChanges><FrequencyChange><Frequency dt:dt=""r8"">2394030000</Frequency><Timestamp dt:dt=""r8"">1.92503061321221E+16</Timestamp><Current dt:dt=""r8"">0</Current><DateUtc dt:dt=""string"">2013-05-23T19:51:23Z</DateUtc></FrequencyChange></FrequencyChanges></Clock>\n",60.071,1,-999999,7,184717,1194644594,116114,117831,187697,1077,5/23/13,12:51:23,7:51:23 PM,13,,,,,,,,1,1,1,,,,,,,BlockProc,ExperBlockList,,,,,,,,,,,,,,,95,0,16,440966,ID.bmp,,E,bottom,I,E,bottom,AwareTrialProc,TrialList,500,0,,-999999,16,441482,1,652,442134,IN.bmp,,,6,1,95,critical,disgustneuDP_Faces_A_new_2,501,1,"<?xml version=""1.0""?>\n<Clock xmlns:dt=""urn:schemas-microsoft-com:datatypes""><Description dt:dt=""string"">E-Prime Primary Realtime Clock</Description><StartTime><Timestamp dt:dt=""int"">0</Timestamp><DateUtc dt:dt=""string"">2013-05-23T19:51:23Z</DateUtc></StartTime><FrequencyChanges><FrequencyChange><Frequency dt:dt=""r8"">2394030000</Frequency><Timestamp dt:dt=""r8"">1.92503061321221E+16</Timestamp><Current dt:dt=""r8"">0</Current><DateUtc dt:dt=""string"">2013-05-23T19:51:23Z</DateUtc></FrequencyChange></FrequencyChanges></Clock>\n",60.071,1,-999999,7,184717,1194644594,116114,117831,187697,1077,5/23/13,12:51:23,7:51:23 PM,13,,,,,,,,1,1,1,,,,,,,BlockProc,ExperBlockList,,,,,,,,,,,,,,,96,0,17,443680,ID.bmp,,,bottom,I,F,top,AwareTrialProc,TrialList,500,0,,-999999,16,444196,2,545,444741,IN.bmp,,F,4,1,96,critical,disgustneuDP_Faces_B_new_2,502,1,"<?xml version=""1.0""?>\n<Clock xmlns:dt=""urn:schemas-microsoft-com:datatypes""><Description dt:dt=""string"">E-Prime Primary Realtime Clock</Description><StartTime><Timestamp dt:dt=""int"">0</Timestamp><DateUtc dt:dt=""string"">2013-05-28T23:46:46Z</DateUtc></StartTime><FrequencyChanges><FrequencyChange><Frequency dt:dt=""r8"">2394030000</Frequency><Timestamp dt:dt=""r8"">2.03183139572423E+16</Timestamp><Current dt:dt=""r8"">0</Current><DateUtc dt:dt=""string"">2013-05-28T23:46:46Z</DateUtc></FrequencyChange></FrequencyChanges></Clock>\n",60.071,1,-999999,7,178898,957805879,119501,121004,180230,1781,5/28/13,16:46:46,,1,0,16,121532,QN.bmp,,,,,,,Q,1,1,1,E,top,PracTrialProcAware,PracTrialList,500,0,,-999999,16,122048,1,1392,123440,QN.bmp,,E,practice,neuneu,,,,,,,,,,,,,,,,,,,,,,,,,,,,,,DP_Faces_B_new_2,502,1,"<?xml version=""1.0""?>\n<Clock xmlns:dt=""urn:schemas-microsoft-com:datatypes""><Description dt:dt=""string"">E-Prime Primary Realtime Clock</Description><StartTime><Timestamp dt:dt=""int"">0</Timestamp><DateUtc dt:dt=""string"">2013-05-28T23:46:46Z</DateUtc></StartTime><FrequencyChanges><FrequencyChange><Frequency dt:dt=""r8"">2394030000</Frequency><Timestamp dt:dt=""r8"">2.03183139572423E+16</Timestamp><Current dt:dt=""r8"">0</Current><DateUtc dt:dt=""string"">2013-05-28T23:46:46Z</DateUtc></FrequencyChange></FrequencyChanges></Clock>\n",60.071,1,-999999,7,178898,957805879,119501,121004,180230,1781,5/28/13,16:46:46,,2,0,33,124995,XN.bmp,,E,,,,,X,6,1,2,E,bottom,PracTrialProcAware,PracTrialList,500,0,,-999999,16,125511,2,849,126360,XN.bmp,,,practice,neuneu,,,,,,,,,,,,,,,,,,,,,,,,,,,,,,DP_Faces_B_new_2,502,1,"<?xml version=""1.0""?>\n<Clock xmlns:dt=""urn:schemas-microsoft-com:datatypes""><Description dt:dt=""string"">E-Prime Primary Realtime Clock</Description><StartTime><Timestamp dt:dt=""int"">0</Timestamp><DateUtc dt:dt=""string"">2013-05-28T23:46:46Z</DateUtc></StartTime><FrequencyChanges><FrequencyChange><Frequency dt:dt=""r8"">2394030000</Frequency><Timestamp dt:dt=""r8"">2.03183139572423E+16</Timestamp><Current dt:dt=""r8"">0</Current><DateUtc dt:dt=""string"">2013-05-28T23:46:46Z</DateUtc></FrequencyChange></FrequencyChanges></Clock>\n",60.071,1,-999999,7,178898,957805879,119501,121004,180230,1781,5/28/13,16:46:46,,3,0,33,127925,VN.bmp,,E,,,,,V,5,1,3,E,bottom,PracTrialProcAware,PracTrialList,500,0,,-999999,16,128441,2,783,129224,VN.bmp,,,practice,neuneu,,,,,,,,,,,,,,,,,,,,,,,,,,,,,,DP_Faces_B_new_2,502,1,"<?xml version=""1.0""?>\n<Clock xmlns:dt=""urn:schemas-microsoft-com:datatypes""><Description dt:dt=""string"">E-Prime Primary Realtime Clock</Description><StartTime><Timestamp dt:dt=""int"">0</Timestamp><DateUtc dt:dt=""string"">2013-05-28T23:46:46Z</DateUtc></StartTime><FrequencyChanges><FrequencyChange><Frequency dt:dt=""r8"">2394030000</Frequency><Timestamp dt:dt=""r8"">2.03183139572423E+16</Timestamp><Current dt:dt=""r8"">0</Current><DateUtc dt:dt=""string"">2013-05-28T23:46:46Z</DateUtc></FrequencyChange></FrequencyChanges></Clock>\n",60.071,1,-999999,7,178898,957805879,119501,121004,180230,1781,5/28/13,16:46:46,,4,0,16,130771,SN.bmp,,,,,,,S,9,1,4,E,top,PracTrialProcAware,PracTrialList,500,0,,-999999,16,131287,1,1009,132296,SN.bmp,,E,practice,neuneu,,,,,,,,,,,,,,,,,,,,,,,,,,,,,,DP_Faces_B_new_2,502,1,"<?xml version=""1.0""?>\n<Clock xmlns:dt=""urn:schemas-microsoft-com:datatypes""><Description dt:dt=""string"">E-Prime Primary Realtime Clock</Description><StartTime><Timestamp dt:dt=""int"">0</Timestamp><DateUtc dt:dt=""string"">2013-05-28T23:46:46Z</DateUtc></StartTime><FrequencyChanges><FrequencyChange><Frequency dt:dt=""r8"">2394030000</Frequency><Timestamp dt:dt=""r8"">2.03183139572423E+16</Timestamp><Current dt:dt=""r8"">0</Current><DateUtc dt:dt=""string"">2013-05-28T23:46:46Z</DateUtc></FrequencyChange></FrequencyChanges></Clock>\n",60.071,1,-999999,7,178898,957805879,119501,121004,180230,1781,5/28/13,16:46:46,,5,0,17,133835,UN.bmp,,,,,,,U,10,1,5,F,top,PracTrialProcAware,PracTrialList,500,0,,-999999,15,134350,1,874,135224,UN.bmp,,F,practice,neuneu,,,,,,,,,,,,,,,,,,,,,,,,,,,,,,DP_Faces_B_new_2,502,1,"<?xml version=""1.0""?>\n<Clock xmlns:dt=""urn:schemas-microsoft-com:datatypes""><Description dt:dt=""string"">E-Prime Primary Realtime Clock</Description><StartTime><Timestamp dt:dt=""int"">0</Timestamp><DateUtc dt:dt=""string"">2013-05-28T23:46:46Z</DateUtc></StartTime><FrequencyChanges><FrequencyChange><Frequency dt:dt=""r8"">2394030000</Frequency><Timestamp dt:dt=""r8"">2.03183139572423E+16</Timestamp><Current dt:dt=""r8"">0</Current><DateUtc dt:dt=""string"">2013-05-28T23:46:46Z</DateUtc></FrequencyChange></FrequencyChanges></Clock>\n",60.071,1,-999999,7,178898,957805879,119501,121004,180230,1781,5/28/13,16:46:46,,6,0,16,136764,UN.bmp,,,,,,,U,4,1,6,F,top,PracTrialProcAware,PracTrialList,500,0,,-999999,16,137280,2,1215,138495,UN.bmp,,F,practice,neuneu,,,,,,,,,,,,,,,,,,,,,,,,,,,,,,DP_Faces_B_new_2,502,1,"<?xml version=""1.0""?>\n<Clock xmlns:dt=""urn:schemas-microsoft-com:datatypes""><Description dt:dt=""string"">E-Prime Primary Realtime Clock</Description><StartTime><Timestamp dt:dt=""int"">0</Timestamp><DateUtc dt:dt=""string"">2013-05-28T23:46:46Z</DateUtc></StartTime><FrequencyChanges><FrequencyChange><Frequency dt:dt=""r8"">2394030000</Frequency><Timestamp dt:dt=""r8"">2.03183139572423E+16</Timestamp><Current dt:dt=""r8"">0</Current><DateUtc dt:dt=""string"">2013-05-28T23:46:46Z</DateUtc></FrequencyChange></FrequencyChanges></Clock>\n",60.071,1,-999999,7,178898,957805879,119501,121004,180230,1781,5/28/13,16:46:46,,7,0,16,140044,RN.bmp,,F,,,,,R,8,1,7,F,bottom,PracTrialProcAware,PracTrialList,500,0,,-999999,16,140560,2,1064,141624,RN.bmp,,,practice,neuneu,,,,,,,,,,,,,,,,,,,,,,,,,,,,,,